ENTRY            30852   20230313                             32103085200000001 
SUBENT        30852001   20230313                             32103085200100001 
BIB                 12         19                                 3085200100002 
TITLE      Measurements of Neutron Total Cross-Section of Natural 3085200100003 
           Silver in the Energy Region from 0.01 to 10 eV         3085200100004 
AUTHOR     (S.G.Shin, M.H.Cho, G.N.Kim, M.W.Lee)                  3085200100005 
INSTITUTE  (3KORPUE,3KORKNU,3KORDRM)                              3085200100006 
REFERENCE  (J,KPS,72,17,2018)                                     3085200100007 
FACILITY   (LINAC,3KORPUE) Pohang Neutron Facility (PNF)          3085200100008 
INC-SOURCE (PHOTO) Ta(g,n) photonuclear reaction                  3085200100009 
SAMPLE     Ag metallic plate                                      3085200100010 
            - size: 10 cm x 10 cm                                 3085200100011 
            - thickness: 0.5 mm (2.87 atoms/mbarn)                3085200100012 
METHOD     (TOF,TRN) 11 m flight path. The Co, In, Dy and Cd notch3085200100013 
            filters were used for the background measurement and  3085200100014 
            the energy calibration.                               3085200100015 
DETECTOR   (SCIN) 6Li-ZnS(Ag) scintillator (BC702) with a diameter3085200100016 
            12.5 cm and a thickness of 1.6 cm                     3085200100017 
ERR-ANALYS (ERR-S) Statistical error                              3085200100018 
STATUS     (APRVD) Approved by G.N.Kim (2023-03-14)               3085200100019 
HISTORY    (20230309R) Total CS data received from S.G.Shin       3085200100020 
           (20230313C) S.C.Yang                                   3085200100021 
ENDBIB              19          0                                 3085200100022 
NOCOMMON             0          0                                 3085200100023 
ENDSUBENT           22          0                                 3085200199999 
SUBENT        30852002   20230313                             32103085200200001 
BIB                  2          2                                 3085200200002 
REACTION   (47-AG-0(N,TOT),,SIG)                                  3085200200003 
STATUS     (TABLE) Fig.5 of J.Korean Phys.Soc.72,17,2018          3085200200004 
ENDBIB               2          0                                 3085200200005 
NOCOMMON             0          0                                 3085200200006 
DATA                 3        514                                 3085200200007 
EN         DATA       ERR-S                                       3085200200008 
EV         B          B                                           3085200200009 
0.01057    92.2055    7.93573                                     3085200200010 
0.01062    102.12     8.08536                                     3085200200011 
0.01068    108.174    8.29838                                     3085200200012 
0.01073    94.355     7.77928                                     3085200200013 
0.01078    104.656    8.04563                                     3085200200014 
0.01084    98.0794    7.76592                                     3085200200015 
0.01089    105.108    7.943                                       3085200200016 
0.01095    95.8978    7.64862                                     3085200200017 
0.011      94.8898    7.49843                                     3085200200018 
0.01106    105.268    7.77698                                     3085200200019 
0.01112    85.4569    7.16011                                     3085200200020 
0.01117    93.5929    7.35206                                     3085200200021 
0.01123    98.7819    7.33746                                     3085200200022 
0.01129    94.5103    7.19778                                     3085200200023 
0.01135    103.482    7.39958                                     3085200200024 
0.01141    95.6318    7.1568                                      3085200200025 
0.01147    87.2561    6.84359                                     3085200200026 
0.01153    96.7798    7.08382                                     3085200200027 
0.01159    89.204     6.84144                                     3085200200028 
0.01165    91.5343    6.84657                                     3085200200029 
0.01171    108.731    7.18343                                     3085200200030 
0.01177    90.2769    6.67743                                     3085200200031 
0.01183    91.1991    6.64534                                     3085200200032 
0.01189    96.0125    6.71024                                     3085200200033 
0.01196    89.3751    6.48455                                     3085200200034 
0.01202    103.346    6.79202                                     3085200200035 
0.01209    92.3327    6.47625                                     3085200200036 
0.01215    94.5926    6.47268                                     3085200200037 
0.01222    97.4797    6.51731                                     3085200200038 
0.01228    99.7131    6.51284                                     3085200200039 
0.01235    86.6702    6.15737                                     3085200200040 
0.01241    91.2625    6.19831                                     3085200200041 
0.01248    92.0058    6.16618                                     3085200200042 
0.01255    88.8621    6.01637                                     3085200200043 
0.01262    90.146     6.00698                                     3085200200044 
0.01269    88.0536    5.95307                                     3085200200045 
0.01276    94.524     6.02352                                     3085200200046 
0.01283    90.7965    5.9323                                      3085200200047 
0.0129     98.5183    6.06986                                     3085200200048 
0.01297    98.4952    6.00012                                     3085200200049 
0.01304    91.6566    5.79285                                     3085200200050 
0.01311    88.5654    5.7282                                      3085200200051 
0.01319    94.5286    5.78138                                     3085200200052 
0.01326    92.0421    5.71304                                     3085200200053 
0.01333    90.3807    5.63167                                     3085200200054 
0.01341    91.9605    5.58014                                     3085200200055 
0.01348    89.042     5.5291                                      3085200200056 
0.01356    92.5053    5.5707                                      3085200200057 
0.01364    91.8334    5.49194                                     3085200200058 
0.01371    96.4029    5.54146                                     3085200200059 
0.01379    92.6962    5.40554                                     3085200200060 
0.01387    88.3903    5.28975                                     3085200200061 
0.01395    91.5025    5.31456                                     3085200200062 
0.01403    87.6008    5.18817                                     3085200200063 
0.01411    85.2299    5.06399                                     3085200200064 
0.01419    87.171     5.05201                                     3085200200065 
0.01428    86.0184    5.00857                                     3085200200066 
0.01436    84.8163    4.96465                                     3085200200067 
0.01444    85.1409    4.92924                                     3085200200068 
0.01453    86.2504    4.90479                                     3085200200069 
0.01461    87.807     4.87744                                     3085200200070 
0.0147     92.428     4.91984                                     3085200200071 
0.01479    91.086     4.86925                                     3085200200072 
0.01487    89.9971    4.80895                                     3085200200073 
0.01496    87.5874    4.75788                                     3085200200074 
0.01505    85.0831    4.65264                                     3085200200075 
0.01514    82.6231    4.58899                                     3085200200076 
0.01523    78.0772    4.4554                                      3085200200077 
0.01532    90.5885    4.63636                                     3085200200078 
0.01542    89.9971    4.59692                                     3085200200079 
0.01551    79.3919    4.38034                                     3085200200080 
0.0156     84.8919    4.45893                                     3085200200081 
0.0157     78.365     4.31073                                     3085200200082 
0.01579    86.0318    4.39772                                     3085200200083 
0.01589    80.5271    4.29805                                     3085200200084 
0.01599    84.2656    4.32223                                     3085200200085 
0.01609    80.7511    4.22613                                     3085200200086 
0.01619    81.1027    4.19962                                     3085200200087 
0.01629    80.6325    4.15443                                     3085200200088 
0.01639    80.5578    4.1272                                      3085200200089 
0.01649    84.7274    4.15022                                     3085200200090 
0.01659    83.0651    4.1172                                      3085200200091 
0.0167     81.7938    4.04933                                     3085200200092 
0.0168     83.8044    4.04618                                     3085200200093 
0.01691    80.4349    3.96335                                     3085200200094 
0.01701    89.087     4.06749                                     3085200200095 
0.01712    76.8283    3.85303                                     3085200200096 
0.01723    82.27      3.89162                                     3085200200097 
0.01734    80.8609    3.85394                                     3085200200098 
0.01745    79.4882    3.80814                                     3085200200099 
0.01757    81.9039    3.80379                                     3085200200100 
0.01768    85.6306    3.82241                                     3085200200101 
0.01779    77.881     3.67298                                     3085200200102 
0.01791    81.5603    3.70757                                     3085200200103 
0.01803    85.3145    3.72548                                     3085200200104 
0.01814    84.6119    3.69576                                     3085200200105 
0.01826    80.2375    3.61017                                     3085200200106 
0.01838    79.8735    3.56697                                     3085200200107 
0.0185     78.889     3.51757                                     3085200200108 
0.01863    74.0118    3.43421                                     3085200200109 
0.01875    79.9787    3.49353                                     3085200200110 
0.01888    71.4274    3.3404                                      3085200200111 
0.019      75.7007    3.3643                                      3085200200112 
0.01913    76.9846    3.35933                                     3085200200113 
0.01926    79.5013    3.3618                                      3085200200114 
0.01939    78.2603    3.32804                                     3085200200115 
0.01952    75.3112    3.25674                                     3085200200116 
0.01965    73.8308    3.2214                                      3085200200117 
0.01979    74.7235    3.20375                                     3085200200118 
0.01992    76.2944    3.20522                                     3085200200119 
0.02006    77.5762    3.18221                                     3085200200120 
0.0202     74.1282    3.11639                                     3085200200121 
0.02034    75.5838    3.09914                                     3085200200122 
0.02048    77.5805    3.09518                                     3085200200123 
0.02062    75.108     3.056                                       3085200200124 
0.02077    77.5109    3.05104                                     3085200200125 
0.02091    76.7197    3.0224                                      3085200200126 
0.02106    74.9524    2.96823                                     3085200200127 
0.02121    73.9472    2.93383                                     3085200200128 
0.02136    73.1984    2.90174                                     3085200200129 
0.02151    68.0563    2.83381                                     3085200200130 
0.02167    69.5974    2.8251                                      3085200200131 
0.02182    75.216     2.86238                                     3085200200132 
0.02198    70.3982    2.78469                                     3085200200133 
0.02214    69.4102    2.75555                                     3085200200134 
0.0223     73.4263    2.77889                                     3085200200135 
0.02246    69.3337    2.70818                                     3085200200136 
0.02262    73.9386    2.73559                                     3085200200137 
0.02279    67.2482    2.64975                                     3085200200138 
0.02296    71.9068    2.66829                                     3085200200139 
0.02313    72.5841    2.65631                                     3085200200140 
0.0233     73.237     2.6355                                      3085200200141 
0.02347    72.962     2.61624                                     3085200200142 
0.02365    70.4323    2.57172                                     3085200200143 
0.02382    68.7178    2.53363                                     3085200200144 
0.024      68.6584    2.52047                                     3085200200145 
0.02418    68.1665    2.49997                                     3085200200146 
0.02437    69.5506    2.48439                                     3085200200147 
0.02455    72.1896    2.48614                                     3085200200148 
0.02474    69.7293    2.44311                                     3085200200149 
0.02493    71.2478    2.44095                                     3085200200150 
0.02512    69.3124    2.40192                                     3085200200151 
0.02532    69.032     2.383                                       3085200200152 
0.02551    65.5619    2.33836                                     3085200200153 
0.02571    63.1144    2.29693                                     3085200200154 
0.02591    68.2004    2.31799                                     3085200200155 
0.02612    68.8494    2.30109                                     3085200200156 
0.02632    66.2565    2.26717                                     3085200200157 
0.02653    66.1638    2.24129                                     3085200200158 
0.02674    67.4342    2.22833                                     3085200200159 
0.02695    63.5114    2.18248                                     3085200200160 
0.02717    64.8434    2.16986                                     3085200200161 
0.02739    65.7554    2.16713                                     3085200200162 
0.02761    67.7811    2.16707                                     3085200200163 
0.02783    65.7175    2.13323                                     3085200200164 
0.02806    69.0914    2.13275                                     3085200200165 
0.02829    64.7721    2.09388                                     3085200200166 
0.02852    66.2776    2.08188                                     3085200200167 
0.02876    66.2312    2.06896                                     3085200200168 
0.02899    63.3567    2.03524                                     3085200200169 
0.02923    65.3937    2.02616                                     3085200200170 
0.02948    64.7637    2.00571                                     3085200200171 
0.02973    62.0136    1.97329                                     3085200200172 
0.02998    63.7414    1.97055                                     3085200200173 
0.03023    61.5352    1.93733                                     3085200200174 
0.03049    61.8471    1.93074                                     3085200200175 
0.03074    64.2019    1.92708                                     3085200200176 
0.03101    65.6039    1.92223                                     3085200200177 
0.03127    62.3343    1.88761                                     3085200200178 
0.03154    64.248     1.88124                                     3085200200179 
0.03182    62.622     1.8558                                      3085200200180 
0.03209    59.901     1.82481                                     3085200200181 
0.03237    62.4635    1.82995                                     3085200200182 
0.03266    61.4978    1.80826                                     3085200200183 
0.03295    63.2104    1.80046                                     3085200200184 
0.03324    60.6715    1.7708                                      3085200200185 
0.03353    59.7727    1.74969                                     3085200200186 
0.03383    57.6655    1.7268                                      3085200200187 
0.03414    59.7397    1.72057                                     3085200200188 
0.03445    59.4213    1.71073                                     3085200200189 
0.03476    60.2032    1.70215                                     3085200200190 
0.03507    58.1015    1.67545                                     3085200200191 
0.03539    58.7979    1.66643                                     3085200200192 
0.03572    56.9221    1.64517                                     3085200200193 
0.03605    59.2272    1.65196                                     3085200200194 
0.03638    58.8433    1.63364                                     3085200200195 
0.03672    53.6228    1.59309                                     3085200200196 
0.03707    56.6637    1.59476                                     3085200200197 
0.03741    56.1516    1.58014                                     3085200200198 
0.03777    57.9163    1.5717                                      3085200200199 
0.03813    56.6514    1.55371                                     3085200200200 
0.03849    58.2951    1.55282                                     3085200200201 
0.03886    58.1056    1.53962                                     3085200200202 
0.03923    53.0502    1.50527                                     3085200200203 
0.03961    56.0902    1.50618                                     3085200200204 
0.04       54.3999    1.49075                                     3085200200205 
0.04039    55.8202    1.48457                                     3085200200206 
0.04078    57.1109    1.47776                                     3085200200207 
0.04119    54.7177    1.4595                                      3085200200208 
0.04159    54.3225    1.44562                                     3085200200209 
0.04201    53.9114    1.43578                                     3085200200210 
0.04243    54.1963    1.42475                                     3085200200211 
0.04285    54.5262    1.42202                                     3085200200212 
0.04329    55.5299    1.41795                                     3085200200213 
0.04373    55.5013    1.40558                                     3085200200214 
0.04417    54.1312    1.39192                                     3085200200215 
0.04463    54.8849    1.38678                                     3085200200216 
0.04509    54.351     1.37244                                     3085200200217 
0.04556    52.6812    1.35777                                     3085200200218 
0.04603    53.375     1.35235                                     3085200200219 
0.04651    51.314     1.33227                                     3085200200220 
0.047      50.6606    1.31768                                     3085200200221 
0.0475     51.9686    1.31859                                     3085200200222 
0.04801    51.1404    1.30739                                     3085200200223 
0.04852    53.2126    1.30707                                     3085200200224 
0.04904    51.0033    1.29074                                     3085200200225 
0.04958    51.6775    1.28516                                     3085200200226 
0.05011    50.435     1.27253                                     3085200200227 
0.05066    51.205     1.27131                                     3085200200228 
0.05122    50.9226    1.26222                                     3085200200229 
0.05179    49.8596    1.25033                                     3085200200230 
0.05236    50.717     1.24938                                     3085200200231 
0.05295    48.4993    1.23344                                     3085200200232 
0.05354    48.8279    1.22659                                     3085200200233 
0.05415    47.3399    1.21737                                     3085200200234 
0.05477    49.2129    1.21992                                     3085200200235 
0.05539    48.8519    1.21465                                     3085200200236 
0.05603    47.8472    1.20316                                     3085200200237 
0.05668    47.9671    1.19957                                     3085200200238 
0.05734    49.0845    1.19941                                     3085200200239 
0.05801    47.3639    1.18951                                     3085200200240 
0.05869    48.0911    1.188                                       3085200200241 
0.05939    47.1923    1.18095                                     3085200200242 
0.0601     46.9849    1.17227                                     3085200200243 
0.06082    47.2042    1.17301                                     3085200200244 
0.06155    45.9099    1.16469                                     3085200200245 
0.0623     46.2599    1.16188                                     3085200200246 
0.06306    44.3077    1.15143                                     3085200200247 
0.06383    43.8095    1.14978                                     3085200200248 
0.06462    44.4621    1.14798                                     3085200200249 
0.06543    46.8493    1.15587                                     3085200200250 
0.06624    46.6222    1.15114                                     3085200200251 
0.06708    46.6381    1.15119                                     3085200200252 
0.06793    45.6199    1.14386                                     3085200200253 
0.0688     43.3831    1.13654                                     3085200200254 
0.06968    44.4818    1.14013                                     3085200200255 
0.07058    42.6656    1.1342                                      3085200200256 
0.0715     44.8542    1.14135                                     3085200200257 
0.07243    41.6274    1.13083                                     3085200200258 
0.07339    45.0524    1.142                                       3085200200259 
0.07436    43.0083    1.13532                                     3085200200260 
0.07535    42.6695    1.13815                                     3085200200261 
0.07637    42.9611    1.1391                                      3085200200262 
0.0774     43.4146    1.14059                                     3085200200263 
0.07845    40.8273    1.13215                                     3085200200264 
0.07953    42.9177    1.1429                                      3085200200265 
0.08063    41.596     1.1425                                      3085200200266 
0.08175    41.981     1.14377                                     3085200200267 
0.08289    38.5859    1.13657                                     3085200200268 
0.08406    40.1581    1.14562                                     3085200200269 
0.08526    40.205     1.14968                                     3085200200270 
0.08648    39.2366    1.15039                                     3085200200271 
0.08772    40.0721    1.15706                                     3085200200272 
0.089      40.4945    1.16238                                     3085200200273 
0.0903     39.9666    1.16844                                     3085200200274 
0.09163    39.947     1.17618                                     3085200200275 
0.09299    39.7908    1.17956                                     3085200200276 
0.09438    40.8391    1.19095                                     3085200200277 
0.0958     39.8767    1.19548                                     3085200200278 
0.09725    39.2639    1.20118                                     3085200200279 
0.09874    37.5599    1.1992                                      3085200200280 
0.10065    37.8782    1.72082                                     3085200200281 
0.10142    38.3603    1.7232                                      3085200200282 
0.10221    37.7773    1.72808                                     3085200200283 
0.10301    37.719     1.73944                                     3085200200284 
0.10381    35.3856    1.73169                                     3085200200285 
0.10463    37.6142    1.75056                                     3085200200286 
0.10545    36.6916    1.75368                                     3085200200287 
0.10629    39.5604    1.77989                                     3085200200288 
0.10713    36.0805    1.76606                                     3085200200289 
0.10799    36.4478    1.77953                                     3085200200290 
0.10885    36.1694    1.78197                                     3085200200291 
0.10973    37.2999    1.7994                                      3085200200292 
0.11062    33.152     1.78194                                     3085200200293 
0.11151    35.4203    1.80515                                     3085200200294 
0.11242    39.1547    1.83629                                     3085200200295 
0.11334    36.2815    1.83281                                     3085200200296 
0.11427    34.3266    1.82641                                     3085200200297 
0.11521    36.1578    1.84376                                     3085200200298 
0.11617    32.2144    1.83448                                     3085200200299 
0.11713    35.7136    1.86457                                     3085200200300 
0.11811    33.1367    1.86616                                     3085200200301 
0.1191     36.2042    1.89426                                     3085200200302 
0.1201     37.0015    1.91023                                     3085200200303 
0.12112    32.6695    1.89428                                     3085200200304 
0.12215    35.9028    1.92739                                     3085200200305 
0.12319    37.017     1.94131                                     3085200200306 
0.12424    33.0064    1.93058                                     3085200200307 
0.12531    33.4242    1.94057                                     3085200200308 
0.12639    35.3509    1.97061                                     3085200200309 
0.12749    35.9414    1.98554                                     3085200200310 
0.1286     38.3603    2.01882                                     3085200200311 
0.12973    33.5469    1.9988                                      3085200200312 
0.13087    34.2458    2.01435                                     3085200200313 
0.13202    34.9809    2.03401                                     3085200200314 
0.13319    31.9049    2.03141                                     3085200200315 
0.13438    33.8616    2.05821                                     3085200200316 
0.13558    36.8388    2.09136                                     3085200200317 
0.1368     32.9068    2.08321                                     3085200200318 
0.13803    32.2908    2.091                                       3085200200319 
0.13928    32.18      2.1018                                      3085200200320 
0.14055    35.3355    2.14405                                     3085200200321 
0.14184    32.9183    2.14072                                     3085200200322 
0.14314    31.1269    2.14498                                     3085200200323 
0.14446    29.4621    2.14993                                     3085200200324 
0.1458     36.0457    2.20639                                     3085200200325 
0.14716    32.8264    2.20524                                     3085200200326 
0.14854    31.1535    2.20992                                     3085200200327 
0.14994    35.401     2.25245                                     3085200200328 
0.15135    30.1795    2.23795                                     3085200200329 
0.15279    35.9878    2.29488                                     3085200200330 
0.15425    30.8641    2.27661                                     3085200200331 
0.15573    34.2382    2.32567                                     3085200200332 
0.15723    30.3125    2.31102                                     3085200200333 
0.15875    33.8271    2.34981                                     3085200200334 
0.16029    32.9298    2.35908                                     3085200200335 
0.16186    28.6213    2.34522                                     3085200200336 
0.16345    33.083     2.39843                                     3085200200337 
0.16506    31.4737    2.40264                                     3085200200338 
0.1667     32.4705    2.42482                                     3085200200339 
0.16836    29.8149    2.42539                                     3085200200340 
0.17005    34.8884    2.48022                                     3085200200341 
0.17176    28.8559    2.45657                                     3085200200342 
0.1735     37.0712    2.53843                                     3085200200343 
0.17527    31.3632    2.50481                                     3085200200344 
0.17706    33.1405    2.54445                                     3085200200345 
0.17888    30.0921    2.53368                                     3085200200346 
0.18073    31.0164    2.54803                                     3085200200347 
0.1826     30.3239    2.56957                                     3085200200348 
0.18451    27.4017    2.55565                                     3085200200349 
0.18645    27.8845    2.5743                                      3085200200350 
0.18841    30.7803    2.61481                                     3085200200351 
0.19041    32.7231    2.66005                                     3085200200352 
0.19244    29.9288    2.6388                                      3085200200353 
0.1945     27.2849    2.6377                                      3085200200354 
0.1966     34.8846    2.72282                                     3085200200355 
0.19873    29.4355    2.68815                                     3085200200356 
0.20089    28.4247    2.68792                                     3085200200357 
0.20309    27.3489    2.69848                                     3085200200358 
0.20533    31.4203    2.74164                                     3085200200359 
0.20761    31.6645    2.75501                                     3085200200360 
0.20992    28.2471    2.73945                                     3085200200361 
0.21227    28.5608    2.75327                                     3085200200362 
0.21466    25.7921    2.74273                                     3085200200363 
0.21709    29.4393    2.77538                                     3085200200364 
0.21956    28.7121    2.77338                                     3085200200365 
0.22208    25.1811    2.7604                                      3085200200366 
0.22464    26.9233    2.86834                                     3085200200367 
0.22724    28.4171    2.88823                                     3085200200368 
0.22989    24.4328    2.85165                                     3085200200369 
0.23258    24.3057    2.87303                                     3085200200370 
0.23532    28.5646    2.9008                                      3085200200371 
0.23811    29.5759    2.93198                                     3085200200372 
0.24096    28.2168    2.92435                                     3085200200373 
0.24385    26.2051    2.91878                                     3085200200374 
0.24679    25.7508    2.89622                                     3085200200375 
0.24979    25.7283    2.90729                                     3085200200376 
0.25285    32.7498    2.97413                                     3085200200377 
0.25596    28.3907    2.92959                                     3085200200378 
0.25912    25.0126    2.90507                                     3085200200379 
0.26235    28.3378    2.94426                                     3085200200380 
0.26564    28.9771    2.95346                                     3085200200381 
0.26899    24.904     2.90416                                     3085200200382 
0.2724     28.3415    2.92918                                     3085200200383 
0.27588    27.8128    2.9436                                      3085200200384 
0.27943    20.8558    2.86692                                     3085200200385 
0.28304    25.5521    2.90582                                     3085200200386 
0.28673    26.5245    2.9177                                      3085200200387 
0.29048    24.8703    2.8964                                      3085200200388 
0.29432    26.9384    2.9174                                      3085200200389 
0.29823    23.9398    2.88867                                     3085200200390 
0.30221    29.3749    2.93408                                     3085200200391 
0.30628    27.0701    2.91474                                     3085200200392 
0.31043    23.3655    2.86156                                     3085200200393 
0.31466    27.2924    2.89776                                     3085200200394 
0.31899    26.1825    2.8923                                      3085200200395 
0.3234     27.5148    2.8883                                      3085200200396 
0.3279     22.049     2.83592                                     3085200200397 
0.3325     23.0117    2.8326                                      3085200200398 
0.3372     27.9373    2.88048                                     3085200200399 
0.34199    26.0736    2.8576                                      3085200200400 
0.3469     27.2283    2.86709                                     3085200200401 
0.3519     24.7656    2.82819                                     3085200200402 
0.35702    23.9809    2.81436                                     3085200200403 
0.36224    17.6852    2.75297                                     3085200200404 
0.36759    27.7562    2.84125                                     3085200200405 
0.37305    20.7633    2.75891                                     3085200200406 
0.37863    27.7713    2.82628                                     3085200200407 
0.38434    18.5551    2.72678                                     3085200200408 
0.39018    22.4204    2.75348                                     3085200200409 
0.39616    18.6139    2.70886                                     3085200200410 
0.40227    22.5579    2.7397                                      3085200200411 
0.40853    23.6227    2.74435                                     3085200200412 
0.41493    21.5038    2.70177                                     3085200200413 
0.42149    23.8502    2.73122                                     3085200200414 
0.4282     26.2652    2.7427                                      3085200200415 
0.43507    21.263     2.70361                                     3085200200416 
0.44211    22.4613    2.70549                                     3085200200417 
0.44932    22.491     2.70944                                     3085200200418 
0.45671    19.4382    2.67475                                     3085200200419 
0.46429    21.4593    2.69772                                     3085200200420 
0.47205    21.1519    2.68423                                     3085200200421 
0.48001    21.0297    2.67959                                     3085200200422 
0.48817    18.9228    2.66344                                     3085200200423 
0.49655    22.3944    2.68268                                     3085200200424 
0.50514    20.8299    2.67436                                     3085200200425 
0.51395    20.5009    2.66444                                     3085200200426 
0.523      19.4271    2.65624                                     3085200200427 
0.53229    25.3272    2.70535                                     3085200200428 
0.54183    21.9228    2.67534                                     3085200200429 
0.55163    23.1495    2.66988                                     3085200200430 
0.56169    20.246     2.65141                                     3085200200431 
0.57204    20.2903    2.64806                                     3085200200432 
0.58267    23.2426    2.67059                                     3085200200433 
0.5936     25.5858    2.68486                                     3085200200434 
0.60484    18.5514    2.62385                                     3085200200435 
0.61641    21.3963    2.64907                                     3085200200436 
0.62831    22.5728    2.66174                                     3085200200437 
0.64055    23.6749    2.65526                                     3085200200438 
0.65316    22.9857    2.65001                                     3085200200439 
0.66615    23.4848    2.64263                                     3085200200440 
0.67953    22.0935    2.63952                                     3085200200441 
0.69331    19.7589    2.60346                                     3085200200442 
0.70752    15.6785    2.5695                                      3085200200443 
0.72216    15.4235    2.56034                                     3085200200444 
0.73727    16.3352    2.56705                                     3085200200445 
0.75286    16.39      2.5638                                      3085200200446 
0.76894    17.9309    2.56049                                     3085200200447 
0.78555    20.3678    2.57477                                     3085200200448 
0.8027     22.9112    2.59735                                     3085200200449 
0.82042    19.2503    2.56284                                     3085200200450 
0.83873    18.489     2.5499                                      3085200200451 
0.85767    18.1951    2.54775                                     3085200200452 
0.87725    20.7707    2.55556                                     3085200200453 
0.89751    16.1271    2.52172                                     3085200200454 
0.91847    17.7989    2.53752                                     3085200200455 
0.94019    20.7375    2.54422                                     3085200200456 
0.96268    18.4228    2.5237                                      3085200200457 
0.98599    19.4455    2.53112                                     3085200200458 
1.01015    17.5789    2.51393                                     3085200200459 
1.03522    14.9031    2.4947                                      3085200200460 
1.06123    21.4       2.53795                                     3085200200461 
1.08823    16.6603    2.49269                                     3085200200462 
1.11627    20.3161    2.51898                                     3085200200463 
1.14542    20.1241    2.5139                                      3085200200464 
1.17572    22.5096    2.52746                                     3085200200465 
1.20724    17.8649    2.49399                                     3085200200466 
1.24004    16.9199    2.47992                                     3085200200467 
1.2742     16.4995    2.46962                                     3085200200468 
1.30979    19.545     2.49499                                     3085200200469 
1.34689    19.4235    2.49043                                     3085200200470 
1.3856     17.6816    2.47068                                     3085200200471 
1.42599    18.2061    2.47808                                     3085200200472 
1.46818    18.489     2.48009                                     3085200200473 
1.51226    19.5045    2.47627                                     3085200200474 
1.55837    21.0445    2.48354                                     3085200200475 
1.60661    20.841     2.48579                                     3085200200476 
1.65713    16.7554    2.45315                                     3085200200477 
1.71007    18.342     2.45701                                     3085200200478 
1.76559    19.1473    2.47005                                     3085200200479 
1.82385    24.8516    2.51082                                     3085200200480 
1.88505    21.0001    2.47582                                     3085200200481 
1.94938    18.4853    2.45434                                     3085200200482 
2.01706    19.7552    2.46699                                     3085200200483 
2.08833    19.4714    2.45393                                     3085200200484 
2.16344    20.7153    2.4701                                      3085200200485 
2.24268    21.1371    2.47309                                     3085200200486 
2.32636    23.7346    2.49533                                     3085200200487 
2.41481    20.841     2.47099                                     3085200200488 
2.50839    24.0256    2.48995                                     3085200200489 
2.60753    25.2597    2.51002                                     3085200200490 
2.71266    27.5789    2.53433                                     3085200200491 
2.82428    28.7348    2.54275                                     3085200200492 
2.94293    28.3453    2.54369                                     3085200200493 
3.06922    35.868     2.60306                                     3085200200494 
3.20382    34.1152    2.59769                                     3085200200495 
3.34747    37.4939    2.63852                                     3085200200496 
3.50101    42.5829    2.69703                                     3085200200497 
3.66535    56.918     2.85543                                     3085200200498 
3.84154    65.9532    2.97676                                     3085200200499 
4.03075    84.3633    3.24036                                     3085200200500 
4.23429    123.352    3.85238                                     3085200200501 
4.45365    197.343    5.58027                                     3085200200502 
4.6905     397.255    16.3985                                     3085200200503 
4.94676    1125.5     407.899                                     3085200200504 
5.22462    1712.34    3417.39                                     3085200200505 
5.52655    697.703    56.2612                                     3085200200506 
5.77052    291.604    10.7977                                     3085200200507 
5.94225    170.878    5.76386                                     3085200200508 
6.12176    117.465    4.45168                                     3085200200509 
6.30953    81.239     3.77894                                     3085200200510 
6.50608    59.8183    3.41296                                     3085200200511 
6.71195    49.4658    3.26486                                     3085200200512 
6.92776    35.0001    3.0743                                      3085200200513 
7.15414    36.1501    3.07673                                     3085200200514 
7.3918     28.4738    2.96432                                     3085200200515 
7.6415     24.818     2.91467                                     3085200200516 
7.90407    24.1563    2.8942                                      3085200200517 
8.18041    14.2999    2.78081                                     3085200200518 
8.47151    20.0208    2.83053                                     3085200200519 
8.77842    14.605     2.75417                                     3085200200520 
9.10231    11.541     2.73366                                     3085200200521 
9.44447    16.7517    2.76754                                     3085200200522 
9.80629    10.5232    2.69696                                     3085200200523 
ENDDATA            516          00                                3085200200524 
ENDSUBENT          523          00                                3085200299999 
ENDENTRY             2          0                                 3085299999999 
