ENTRY            32912   20240528                             32133291200000001 
SUBENT        32912001   20240528                             32133291200100001 
BIB                 12         41                                 3291200100002 
TITLE      Measurement of the neutron.induced total cross         3291200100003 
           sections of natPb from 0.3 eV to 20 MeV on the Back-n  3291200100004 
           at CSNS                                                3291200100005 
AUTHOR     (Jie-Ming Xue,Song Feng,Yong-Hao Chen,Han Yi,Min Xiao, 3291200100006 
           Pin-Jing Cheng,Xin-Xiang Li,Rong Liu,Yi-Wei Yang,      3291200100007 
           Zi-Jie Han,Da-Jun Zhao,Hao-Qiang Wang,Bao-Qian Li,     3291200100008 
           Ji-Rong Zhao,Lei-Xun Tang,Wen Luo,Bo Zheng)            3291200100009 
INSTITUTE  (3CPRIHP,3CPRNPC)                                      3291200100010 
           (3CPRCPR) University of South China, Hengyang          3291200100011 
           (3CPRCPR) Spallation Neutron Source Science Center,    3291200100012 
                     Dongguan                                     3291200100013 
REFERENCE  (J,CNST,35,18,2024)                                    3291200100014 
           #doi:10.1007/s41365-024-01370-z                        3291200100015 
FACILITY   (SYNCH,3CPRIHP) The back-streaming white neutron       3291200100016 
           beam line (Back-n) at the China Spallation Neutron     3291200100017 
           Source (CSNS)                                          3291200100018 
INC-SOURCE (SPALL) Neutrons were produced by 1.6 GeV proton-      3291200100019 
           induced spallation reactions on a tungsten target.     3291200100020 
           The incident proton pulse was in two bunches,          3291200100021 
           approximately 70 ns (FWHM) wide and 410 ns apart.      3291200100022 
SAMPLE     A high-purity (99.99%) cylindrical natural lead with   3291200100023 
           a thickness of 10.03 mm, diameter of 70 mm, mass of    3291200100024 
           436.8 g, density of 11.32 g/cm3.                       3291200100025 
DETECTOR   (FISCH) The multi-cell fission chamber can be filled   3291200100026 
           with similar or different 8 pieces of samples, and     3291200100027 
           four 235 U and four 238 U high-purity samples were     3291200100028 
           used. The chamber was filled with a gas mixture of     3291200100029 
           90% Ar and 10% CF4 at 800 mbar.                        3291200100030 
METHOD     (TOF) Flight distance of 55 m. The cumulative          3291200100031 
           irradiation time for the sample was 142 h and 50 h     3291200100032 
           for the measurement without the sample.                3291200100033 
ERR-ANALYS1(DATA-ERR) uncertainty related to the statistical      3291200100034 
            uncertainty in the neutron counts and the             3291200100035 
            double-bunch unfolding process                        3291200100036 
          2(DATA-ERR) uncertainty mainly comes from the           3291200100037 
            uncertainty of the atomic density of the sample and   3291200100038 
            the transmission                                      3291200100039 
STATUS     (TABLE,,Jieming Xue+,J,CNST,35,18,2024)                3291200100040 
            Data presented by author                              3291200100041 
HISTORY    (20240528C) Jimin Wang (CNDC)                          3291200100042 
           (20240612R) The data were received from Song Feng      3291200100043 
ENDBIB              41          0                                 3291200100044 
NOCOMMON             0          0                                 3291200100045 
ENDSUBENT           44          0                                 3291200199999 
SUBENT        32912002   20240528                             32133291200200001 
BIB                  3          5                                 3291200200002 
REACTION  1(82-PB-0(N,TOT),,TRN)                                  3291200200003 
          2(82-PB-0(N,TOT),,SIG)                                  3291200200004 
COMMENT    The transmission spectra corresponding to the fission  3291200200005 
           events of 235U                                         3291200200006 
STATUS     (COREL,32912003) measured with 238U fission chamber    3291200200007 
ENDBIB               5          0                                 3291200200008 
COMMON               1          3                                 3291200200009 
THICKNESS 1                                                       3291200200010 
ATOMS/B                                                           3291200200011 
 3.3517E-02                                                       3291200200012 
ENDCOMMON            3          0                                 3291200200013 
DATA                 6        777                                 3291200200014 
EN         EN-RSL     DATA      1DATA-ERR  1DATA      2DATA-ERR  23291200200015 
EV         EV         NO-DIM     NO-DIM     B          B          3291200200016 
 3.3113E-01   4.74E-06      0.691     0.0124     11.209      0.5503291200200017 
 3.3884E-01   4.91E-06      0.684     0.0108     11.519      0.4843291200200018 
 3.4674E-01   5.08E-06      0.699     0.0099     10.877      0.4353291200200019 
 3.5481E-01   5.26E-06      0.683     0.0088     11.577      0.3973291200200020 
 3.6308E-01   5.45E-06      0.686     0.0081     11.445      0.3653291200200021 
 3.7154E-01   5.64E-06      0.689     0.0076     11.295      0.3423291200200022 
 3.8019E-01   5.83E-06      0.695     0.0072     11.036      0.3203291200200023 
 3.8905E-01   6.04E-06      0.692     0.0068     11.178      0.3043291200200024 
 3.9811E-01   6.25E-06      0.694     0.0065     11.089      0.2903291200200025 
 4.0738E-01   6.47E-06      0.682     0.0061     11.615      0.2793291200200026 
 4.1687E-01   6.70E-06      0.683     0.0059     11.560      0.2693291200200027 
 4.2658E-01   6.93E-06      0.680     0.0056     11.684      0.2613291200200028 
 4.3652E-01   7.18E-06      0.680     0.0055     11.686      0.2553291200200029 
 4.4668E-01   7.43E-06      0.687     0.0054     11.388      0.2483291200200030 
 4.5709E-01   7.69E-06      0.685     0.0053     11.488      0.2433291200200031 
 4.6774E-01   7.96E-06      0.694     0.0052     11.090      0.2373291200200032 
 4.7863E-01   8.24E-06      0.691     0.0051     11.209      0.2343291200200033 
 4.8978E-01   8.53E-06      0.693     0.0050     11.143      0.2303291200200034 
 5.0119E-01   8.83E-06      0.688     0.0049     11.342      0.2283291200200035 
 5.1286E-01   9.14E-06      0.688     0.0049     11.364      0.2263291200200036 
 5.2481E-01   9.46E-06      0.685     0.0048     11.496      0.2233291200200037 
 5.3703E-01   9.80E-06      0.692     0.0048     11.192      0.2223291200200038 
 5.4954E-01   1.01E-05      0.690     0.0048     11.269      0.2213291200200039 
 5.6234E-01   1.05E-05      0.684     0.0047     11.526      0.2203291200200040 
 5.7544E-01   1.09E-05      0.690     0.0047     11.245      0.2193291200200041 
 5.8884E-01   1.12E-05      0.683     0.0047     11.575      0.2183291200200042 
 6.0256E-01   1.16E-05      0.686     0.0046     11.440      0.2173291200200043 
 6.1660E-01   1.21E-05      0.692     0.0047     11.168      0.2153291200200044 
 6.3096E-01   1.25E-05      0.692     0.0046     11.190      0.2133291200200045 
 6.4565E-01   1.29E-05      0.694     0.0046     11.062      0.2123291200200046 
 6.6069E-01   1.34E-05      0.688     0.0045     11.332      0.2123291200200047 
 6.7608E-01   1.38E-05      0.693     0.0046     11.129      0.2103291200200048 
 6.9183E-01   1.43E-05      0.690     0.0045     11.240      0.2103291200200049 
 7.0795E-01   1.48E-05      0.692     0.0045     11.161      0.2093291200200050 
 7.2444E-01   1.53E-05      0.692     0.0045     11.175      0.2093291200200051 
 7.4131E-01   1.59E-05      0.691     0.0045     11.234      0.2083291200200052 
 7.5858E-01   1.64E-05      0.690     0.0045     11.256      0.2073291200200053 
 7.7625E-01   1.70E-05      0.686     0.0044     11.413      0.2073291200200054 
 7.9433E-01   1.76E-05      0.680     0.0044     11.718      0.2073291200200055 
 8.1283E-01   1.82E-05      0.681     0.0043     11.656      0.2063291200200056 
 8.3176E-01   1.89E-05      0.686     0.0044     11.416      0.2043291200200057 
 8.5114E-01   1.95E-05      0.688     0.0043     11.347      0.2033291200200058 
 8.7096E-01   2.02E-05      0.686     0.0043     11.452      0.2023291200200059 
 8.9125E-01   2.09E-05      0.689     0.0042     11.307      0.1993291200200060 
 9.1201E-01   2.17E-05      0.691     0.0042     11.208      0.1963291200200061 
 9.3325E-01   2.24E-05      0.692     0.0041     11.169      0.1923291200200062 
 9.5499E-01   2.32E-05      0.692     0.0040     11.163      0.1883291200200063 
 9.7724E-01   2.40E-05      0.691     0.0039     11.229      0.1833291200200064 
 1.0000E+00   2.49E-05      0.690     0.0037     11.279      0.1783291200200065 
 1.0233E+00   2.58E-05      0.692     0.0036     11.181      0.1703291200200066 
 1.0471E+00   2.67E-05      0.682     0.0033     11.612      0.1633291200200067 
 1.0715E+00   2.76E-05      0.691     0.0032     11.234      0.1553291200200068 
 1.0965E+00   2.86E-05      0.684     0.0030     11.519      0.1493291200200069 
 1.1220E+00   2.96E-05      0.691     0.0030     11.210      0.1473291200200070 
 1.1482E+00   3.06E-05      0.688     0.0032     11.360      0.1553291200200071 
 1.1749E+00   3.17E-05      0.689     0.0037     11.307      0.1753291200200072 
 1.2023E+00   3.28E-05      0.689     0.0044     11.283      0.2053291200200073 
 1.2303E+00   3.40E-05      0.693     0.0052     11.137      0.2393291200200074 
 1.2589E+00   3.52E-05      0.685     0.0058     11.462      0.2673291200200075 
 1.2883E+00   3.64E-05      0.692     0.0062     11.154      0.2813291200200076 
 1.3183E+00   3.77E-05      0.680     0.0063     11.682      0.2903291200200077 
 1.3490E+00   3.90E-05      0.691     0.0067     11.203      0.3013291200200078 
 1.3804E+00   4.04E-05      0.692     0.0069     11.158      0.3113291200200079 
 1.4125E+00   4.18E-05      0.697     0.0072     10.949      0.3203291200200080 
 1.4454E+00   4.33E-05      0.696     0.0073     11.010      0.3273291200200081 
 1.4791E+00   4.48E-05      0.678     0.0073     11.804      0.3333291200200082 
 1.5136E+00   4.63E-05      0.690     0.0075     11.255      0.3363291200200083 
 1.5488E+00   4.80E-05      0.690     0.0076     11.238      0.3423291200200084 
 1.5849E+00   4.97E-05      0.686     0.0077     11.422      0.3463291200200085 
 1.6218E+00   5.14E-05      0.685     0.0078     11.478      0.3513291200200086 
 1.6596E+00   5.32E-05      0.687     0.0079     11.372      0.3533291200200087 
 1.6982E+00   5.51E-05      0.688     0.0080     11.363      0.3603291200200088 
 1.7378E+00   5.70E-05      0.691     0.0082     11.211      0.3643291200200089 
 1.7783E+00   5.90E-05      0.693     0.0082     11.123      0.3653291200200090 
 1.8197E+00   6.11E-05      0.687     0.0081     11.390      0.3663291200200091 
 1.8621E+00   6.32E-05      0.678     0.0079     11.805      0.3623291200200092 
 1.9055E+00   6.55E-05      0.685     0.0079     11.477      0.3553291200200093 
 1.9498E+00   6.78E-05      0.684     0.0071     11.526      0.3243291200200094 
 1.9953E+00   7.01E-05      0.689     0.0060     11.321      0.2743291200200095 
 2.0417E+00   7.26E-05      0.690     0.0066     11.262      0.2993291200200096 
 2.0893E+00   7.52E-05      0.684     0.0082     11.537      0.3723291200200097 
 2.1380E+00   7.78E-05      0.681     0.0089     11.647      0.4023291200200098 
 2.1878E+00   8.05E-05      0.689     0.0092     11.304      0.4093291200200099 
 2.2387E+00   8.34E-05      0.686     0.0092     11.434      0.4133291200200100 
 2.2909E+00   8.63E-05      0.692     0.0094     11.174      0.4193291200200101 
 2.3442E+00   8.93E-05      0.670     0.0093     12.129      0.4273291200200102 
 2.3988E+00   9.25E-05      0.671     0.0094     12.089      0.4323291200200103 
 2.4547E+00   9.57E-05      0.683     0.0097     11.588      0.4363291200200104 
 2.5119E+00   9.91E-05      0.688     0.0100     11.329      0.4453291200200105 
 2.5704E+00   1.03E-04      0.696     0.0106     10.982      0.4653291200200106 
 2.6303E+00   1.06E-04      0.670     0.0109     12.138      0.4973291200200107 
 2.6915E+00   1.10E-04      0.663     0.0107     12.477      0.4933291200200108 
 2.7542E+00   1.14E-04      0.680     0.0086     11.691      0.3893291200200109 
 2.8184E+00   1.18E-04      0.681     0.0073     11.656      0.3323291200200110 
 2.8840E+00   1.22E-04      0.699     0.0071     10.874      0.3143291200200111 
 2.9512E+00   1.26E-04      0.689     0.0064     11.315      0.2903291200200112 
 3.0200E+00   1.31E-04      0.688     0.0054     11.357      0.2473291200200113 
 3.0903E+00   1.35E-04      0.687     0.0045     11.410      0.2123291200200114 
 3.1623E+00   1.40E-04      0.689     0.0052     11.308      0.2383291200200115 
 3.2359E+00   1.45E-04      0.685     0.0071     11.495      0.3203291200200116 
 3.3113E+00   1.50E-04      0.676     0.0078     11.890      0.3563291200200117 
 3.3884E+00   1.55E-04      0.692     0.0074     11.173      0.3293291200200118 
 3.4674E+00   1.61E-04      0.687     0.0054     11.400      0.2503291200200119 
 3.5481E+00   1.66E-04      0.685     0.0039     11.463      0.1843291200200120 
 3.6308E+00   1.72E-04      0.687     0.0054     11.385      0.2473291200200121 
 3.7154E+00   1.78E-04      0.693     0.0126     11.111      0.5543291200200122 
 3.8019E+00   1.85E-04      0.715     0.0213     10.170      0.9043291200200123 
 3.8905E+00   1.91E-04      0.714     0.0238     10.211      1.0153291200200124 
 3.9811E+00   1.98E-04      0.650     0.0219     13.063      1.0263291200200125 
 4.0738E+00   2.05E-04      0.701     0.0232     10.786      1.0073291200200126 
 4.1687E+00   2.12E-04      0.685     0.0220     11.486      0.9773291200200127 
 4.2658E+00   2.19E-04      0.684     0.0212     11.523      0.9453291200200128 
 4.3652E+00   2.27E-04      0.691     0.0207     11.205      0.9103291200200129 
 4.4668E+00   2.35E-04      0.689     0.0194     11.283      0.8553291200200130 
 4.5709E+00   2.43E-04      0.684     0.0174     11.532      0.7733291200200131 
 4.6774E+00   2.52E-04      0.680     0.0124     11.692      0.5563291200200132 
 4.7863E+00   2.61E-04      0.691     0.0073     11.209      0.3283291200200133 
 4.8978E+00   2.70E-04      0.675     0.0114     11.907      0.5153291200200134 
 5.0119E+00   2.79E-04      0.684     0.0131     11.545      0.5853291200200135 
 5.1286E+00   2.89E-04      0.702     0.0112     10.733      0.4903291200200136 
 5.2481E+00   2.99E-04      0.688     0.0086     11.361      0.3863291200200137 
 5.3703E+00   3.10E-04      0.691     0.0071     11.209      0.3193291200200138 
 5.4954E+00   3.21E-04      0.681     0.0067     11.653      0.3053291200200139 
 5.6234E+00   3.32E-04      0.687     0.0068     11.387      0.3103291200200140 
 5.7544E+00   3.44E-04      0.690     0.0068     11.259      0.3063291200200141 
 5.8884E+00   3.56E-04      0.690     0.0060     11.275      0.2723291200200142 
 6.0256E+00   3.68E-04      0.690     0.0045     11.244      0.2073291200200143 
 6.1660E+00   3.81E-04      0.684     0.0036     11.506      0.1723291200200144 
 6.3096E+00   3.94E-04      0.686     0.0026     11.439      0.1353291200200145 
 6.4565E+00   4.08E-04      0.684     0.0059     11.516      0.2713291200200146 
 6.6069E+00   4.23E-04      0.708     0.0117     10.469      0.5073291200200147 
 6.7608E+00   4.38E-04      0.691     0.0099     11.214      0.4403291200200148 
 6.9183E+00   4.53E-04      0.684     0.0042     11.530      0.2013291200200149 
 7.0795E+00   4.69E-04      0.686     0.0045     11.455      0.2103291200200150 
 7.2444E+00   4.85E-04      0.683     0.0134     11.576      0.6013291200200151 
 7.4131E+00   5.02E-04      0.714     0.0182     10.234      0.7753291200200152 
 7.5858E+00   5.20E-04      0.683     0.0207     11.573      0.9233291200200153 
 7.7625E+00   5.38E-04      0.686     0.0209     11.423      0.9263291200200154 
 7.9433E+00   5.57E-04      0.706     0.0138     10.545      0.5963291200200155 
 8.1283E+00   5.77E-04      0.692     0.0085     11.170      0.3803291200200156 
 8.3176E+00   5.97E-04      0.681     0.0047     11.640      0.2193291200200157 
 8.5114E+00   6.18E-04      0.688     0.0018     11.348      0.1043291200200158 
 8.7096E+00   6.40E-04      0.687     0.0011     11.390      0.0843291200200159 
 8.9125E+00   6.62E-04      0.685     0.0022     11.477      0.1193291200200160 
 9.1201E+00   6.86E-04      0.682     0.0026     11.617      0.1353291200200161 
 9.3325E+00   7.10E-04      0.688     0.0035     11.331      0.1683291200200162 
 9.5499E+00   7.35E-04      0.685     0.0048     11.500      0.2223291200200163 
 9.7724E+00   7.60E-04      0.693     0.0063     11.108      0.2843291200200164 
 1.0000E+01   7.87E-04      0.684     0.0058     11.507      0.2653291200200165 
 1.0233E+01   8.15E-04      0.697     0.0073     10.969      0.3253291200200166 
 1.0471E+01   8.43E-04      0.697     0.0079     10.943      0.3483291200200167 
 1.0715E+01   8.73E-04      0.685     0.0071     11.469      0.3203291200200168 
 1.0965E+01   9.04E-04      0.689     0.0073     11.317      0.3293291200200169 
 1.1220E+01   9.35E-04      0.689     0.0064     11.310      0.2883291200200170 
 1.1482E+01   9.68E-04      0.687     0.0035     11.399      0.1713291200200171 
 1.1749E+01   1.00E-03      0.691     0.0058     11.204      0.2643291200200172 
 1.2023E+01   1.04E-03      0.684     0.0028     11.534      0.1403291200200173 
 1.2303E+01   1.07E-03      0.688     0.0017     11.326      0.1003291200200174 
 1.2589E+01   1.11E-03      0.688     0.0048     11.345      0.2243291200200175 
 1.2883E+01   1.15E-03      0.684     0.0056     11.538      0.2593291200200176 
 1.3183E+01   1.19E-03      0.675     0.0052     11.903      0.2443291200200177 
 1.3490E+01   1.23E-03      0.692     0.0041     11.174      0.1903291200200178 
 1.3804E+01   1.28E-03      0.691     0.0030     11.219      0.1463291200200179 
 1.4125E+01   1.32E-03      0.683     0.0035     11.547      0.1703291200200180 
 1.4454E+01   1.37E-03      0.686     0.0052     11.439      0.2393291200200181 
 1.4791E+01   1.42E-03      0.689     0.0079     11.304      0.3553291200200182 
 1.5136E+01   1.47E-03      0.689     0.0039     11.310      0.1863291200200183 
 1.5488E+01   1.52E-03      0.696     0.0072     10.994      0.3203291200200184 
 1.5849E+01   1.57E-03      0.689     0.0038     11.297      0.1823291200200185 
 1.6218E+01   1.63E-03      0.695     0.0052     11.024      0.2353291200200186 
 1.6596E+01   1.68E-03      0.684     0.0037     11.513      0.1783291200200187 
 1.6982E+01   1.74E-03      0.682     0.0084     11.631      0.3823291200200188 
 1.7378E+01   1.80E-03      0.683     0.0074     11.587      0.3373291200200189 
 1.7783E+01   1.87E-03      0.680     0.0030     11.698      0.1523291200200190 
 1.8197E+01   1.93E-03      0.690     0.0050     11.257      0.2283291200200191 
 1.8621E+01   2.00E-03      0.689     0.0039     11.318      0.1873291200200192 
 1.9055E+01   2.07E-03      0.687     0.0015     11.392      0.0953291200200193 
 1.9498E+01   2.14E-03      0.688     0.0043     11.330      0.2003291200200194 
 1.9953E+01   2.22E-03      0.685     0.0063     11.476      0.2863291200200195 
 2.0417E+01   2.30E-03      0.692     0.0046     11.191      0.2153291200200196 
 2.0893E+01   2.38E-03      0.684     0.0031     11.530      0.1533291200200197 
 2.1380E+01   2.46E-03      0.685     0.0118     11.478      0.5283291200200198 
 2.1878E+01   2.55E-03      0.694     0.0141     11.098      0.6213291200200199 
 2.2387E+01   2.64E-03      0.691     0.0053     11.227      0.2443291200200200 
 2.2909E+01   2.73E-03      0.690     0.0035     11.277      0.1683291200200201 
 2.3442E+01   2.83E-03      0.688     0.0030     11.342      0.1493291200200202 
 2.3988E+01   2.92E-03      0.684     0.0038     11.537      0.1813291200200203 
 2.4547E+01   3.03E-03      0.684     0.0039     11.504      0.1873291200200204 
 2.5119E+01   3.13E-03      0.687     0.0030     11.374      0.1513291200200205 
 2.5704E+01   3.24E-03      0.681     0.0046     11.650      0.2183291200200206 
 2.6303E+01   3.36E-03      0.685     0.0039     11.482      0.1873291200200207 
 2.6915E+01   3.48E-03      0.689     0.0069     11.297      0.3133291200200208 
 2.7542E+01   3.60E-03      0.684     0.0037     11.509      0.1803291200200209 
 2.8184E+01   3.72E-03      0.679     0.0054     11.744      0.2493291200200210 
 2.8840E+01   3.85E-03      0.693     0.0096     11.121      0.4253291200200211 
 2.9512E+01   3.99E-03      0.692     0.0080     11.158      0.3563291200200212 
 3.0200E+01   4.13E-03      0.685     0.0042     11.461      0.1993291200200213 
 3.0903E+01   4.28E-03      0.694     0.0063     11.062      0.2833291200200214 
 3.1623E+01   4.43E-03      0.684     0.0022     11.511      0.1213291200200215 
 3.2359E+01   4.58E-03      0.695     0.0076     11.049      0.3393291200200216 
 3.3113E+01   4.74E-03      0.686     0.0028     11.424      0.1413291200200217 
 3.3884E+01   4.91E-03      0.686     0.0023     11.437      0.1243291200200218 
 3.4674E+01   5.08E-03      0.687     0.0018     11.376      0.1033291200200219 
 3.5481E+01   5.26E-03      0.684     0.0040     11.524      0.1923291200200220 
 3.6308E+01   5.45E-03      0.684     0.0062     11.519      0.2823291200200221 
 3.7154E+01   5.64E-03      0.680     0.0062     11.695      0.2853291200200222 
 3.8019E+01   5.83E-03      0.695     0.0052     11.059      0.2363291200200223 
 3.8905E+01   6.04E-03      0.686     0.0029     11.427      0.1463291200200224 
 3.9811E+01   6.25E-03      0.686     0.0047     11.438      0.2183291200200225 
 4.0738E+01   6.47E-03      0.688     0.0035     11.363      0.1703291200200226 
 4.1687E+01   6.70E-03      0.689     0.0033     11.320      0.1613291200200227 
 4.2658E+01   6.93E-03      0.689     0.0046     11.297      0.2123291200200228 
 4.3652E+01   7.18E-03      0.686     0.0036     11.427      0.1743291200200229 
 4.4668E+01   7.43E-03      0.685     0.0045     11.496      0.2093291200200230 
 4.5709E+01   7.69E-03      0.686     0.0052     11.448      0.2423291200200231 
 4.6774E+01   7.96E-03      0.690     0.0038     11.253      0.1823291200200232 
 4.7863E+01   8.24E-03      0.688     0.0034     11.327      0.1633291200200233 
 4.8978E+01   8.53E-03      0.686     0.0041     11.446      0.1923291200200234 
 5.0119E+01   8.83E-03      0.690     0.0021     11.261      0.1143291200200235 
 5.1286E+01   9.14E-03      0.686     0.0018     11.437      0.1063291200200236 
 5.2481E+01   9.46E-03      0.688     0.0033     11.330      0.1613291200200237 
 5.3703E+01   9.80E-03      0.689     0.0032     11.301      0.1563291200200238 
 5.4954E+01   1.01E-02      0.687     0.0016     11.370      0.1003291200200239 
 5.6234E+01   1.05E-02      0.686     0.0019     11.419      0.1073291200200240 
 5.7544E+01   1.09E-02      0.691     0.0023     11.200      0.1223291200200241 
 5.8884E+01   1.12E-02      0.689     0.0034     11.316      0.1653291200200242 
 6.0256E+01   1.16E-02      0.688     0.0034     11.345      0.1653291200200243 
 6.1660E+01   1.21E-02      0.687     0.0054     11.376      0.2493291200200244 
 6.3096E+01   1.25E-02      0.691     0.0044     11.235      0.2053291200200245 
 6.4565E+01   1.29E-02      0.685     0.0071     11.486      0.3243291200200246 
 6.6069E+01   1.34E-02      0.688     0.0079     11.348      0.3563291200200247 
 6.7608E+01   1.38E-02      0.694     0.0066     11.075      0.2963291200200248 
 6.9183E+01   1.43E-02      0.690     0.0022     11.252      0.1193291200200249 
 7.0795E+01   1.48E-02      0.686     0.0027     11.430      0.1373291200200250 
 7.2444E+01   1.53E-02      0.691     0.0035     11.210      0.1693291200200251 
 7.4131E+01   1.59E-02      0.688     0.0027     11.358      0.1363291200200252 
 7.5858E+01   1.64E-02      0.682     0.0057     11.632      0.2653291200200253 
 7.7625E+01   1.70E-02      0.686     0.0042     11.448      0.1993291200200254 
 7.9433E+01   1.76E-02      0.686     0.0041     11.448      0.1923291200200255 
 8.1283E+01   1.82E-02      0.692     0.0045     11.170      0.2063291200200256 
 8.3176E+01   1.89E-02      0.686     0.0026     11.432      0.1323291200200257 
 8.5114E+01   1.95E-02      0.681     0.0047     11.668      0.2203291200200258 
 8.7096E+01   2.02E-02      0.693     0.0036     11.118      0.1703291200200259 
 8.9125E+01   2.09E-02      0.687     0.0041     11.410      0.1923291200200260 
 9.1201E+01   2.17E-02      0.689     0.0031     11.305      0.1533291200200261 
 9.3325E+01   2.24E-02      0.688     0.0045     11.324      0.2103291200200262 
 9.5499E+01   2.32E-02      0.684     0.0043     11.509      0.2033291200200263 
 9.7724E+01   2.40E-02      0.689     0.0044     11.299      0.2063291200200264 
 1.0000E+02   2.49E-02      0.695     0.0071     11.027      0.3193291200200265 
 1.0233E+02   2.58E-02      0.686     0.0039     11.426      0.1853291200200266 
 1.0471E+02   2.67E-02      0.690     0.0039     11.258      0.1863291200200267 
 1.0715E+02   2.76E-02      0.684     0.0042     11.528      0.1993291200200268 
 1.0965E+02   2.86E-02      0.689     0.0049     11.283      0.2253291200200269 
 1.1220E+02   2.96E-02      0.686     0.0062     11.425      0.2853291200200270 
 1.1482E+02   3.06E-02      0.688     0.0042     11.367      0.1983291200200271 
 1.1749E+02   3.17E-02      0.691     0.0035     11.222      0.1663291200200272 
 1.2023E+02   3.28E-02      0.686     0.0030     11.431      0.1493291200200273 
 1.2303E+02   3.40E-02      0.686     0.0033     11.418      0.1613291200200274 
 1.2589E+02   3.52E-02      0.684     0.0036     11.521      0.1733291200200275 
 1.2883E+02   3.64E-02      0.691     0.0059     11.211      0.2663291200200276 
 1.3183E+02   3.77E-02      0.685     0.0039     11.493      0.1873291200200277 
 1.3490E+02   3.90E-02      0.689     0.0037     11.293      0.1773291200200278 
 1.3804E+02   4.04E-02      0.690     0.0055     11.275      0.2503291200200279 
 1.4125E+02   4.18E-02      0.691     0.0040     11.230      0.1903291200200280 
 1.4454E+02   4.33E-02      0.689     0.0036     11.321      0.1713291200200281 
 1.4791E+02   4.48E-02      0.688     0.0036     11.364      0.1733291200200282 
 1.5136E+02   4.63E-02      0.689     0.0051     11.281      0.2333291200200283 
 1.5488E+02   4.80E-02      0.689     0.0049     11.286      0.2273291200200284 
 1.5849E+02   4.97E-02      0.688     0.0041     11.365      0.1923291200200285 
 1.6218E+02   5.14E-02      0.686     0.0037     11.429      0.1783291200200286 
 1.6596E+02   5.32E-02      0.686     0.0032     11.414      0.1583291200200287 
 1.6982E+02   5.51E-02      0.690     0.0052     11.269      0.2383291200200288 
 1.7378E+02   5.70E-02      0.686     0.0028     11.430      0.1413291200200289 
 1.7783E+02   5.90E-02      0.686     0.0034     11.417      0.1673291200200290 
 1.8197E+02   6.11E-02      0.690     0.0077     11.261      0.3453291200200291 
 1.8621E+02   6.32E-02      0.683     0.0060     11.557      0.2753291200200292 
 1.9055E+02   6.55E-02      0.688     0.0048     11.336      0.2243291200200293 
 1.9498E+02   6.78E-02      0.688     0.0038     11.352      0.1823291200200294 
 1.9953E+02   7.01E-02      0.683     0.0037     11.575      0.1793291200200295 
 2.0417E+02   7.26E-02      0.692     0.0045     11.149      0.2073291200200296 
 2.0893E+02   7.52E-02      0.685     0.0036     11.458      0.1723291200200297 
 2.1380E+02   7.78E-02      0.688     0.0044     11.347      0.2063291200200298 
 2.1878E+02   8.05E-02      0.686     0.0034     11.434      0.1643291200200299 
 2.2387E+02   8.34E-02      0.693     0.0040     11.147      0.1883291200200300 
 2.2909E+02   8.63E-02      0.693     0.0033     11.139      0.1613291200200301 
 2.3442E+02   8.93E-02      0.693     0.0041     11.137      0.1923291200200302 
 2.3988E+02   9.25E-02      0.687     0.0032     11.380      0.1573291200200303 
 2.4547E+02   9.57E-02      0.686     0.0049     11.423      0.2273291200200304 
 2.5119E+02   9.91E-02      0.684     0.0041     11.536      0.1973291200200305 
 2.5704E+02   1.03E-01      0.682     0.0031     11.606      0.1563291200200306 
 2.6303E+02   1.06E-01      0.686     0.0033     11.441      0.1623291200200307 
 2.6915E+02   1.10E-01      0.689     0.0030     11.316      0.1473291200200308 
 2.7542E+02   1.14E-01      0.691     0.0036     11.231      0.1733291200200309 
 2.8184E+02   1.18E-01      0.690     0.0052     11.242      0.2403291200200310 
 2.8840E+02   1.22E-01      0.690     0.0040     11.276      0.1873291200200311 
 2.9512E+02   1.26E-01      0.684     0.0044     11.521      0.2083291200200312 
 3.0200E+02   1.31E-01      0.693     0.0045     11.123      0.2083291200200313 
 3.0903E+02   1.35E-01      0.690     0.0045     11.275      0.2113291200200314 
 3.1623E+02   1.40E-01      0.687     0.0045     11.391      0.2123291200200315 
 3.2359E+02   1.45E-01      0.690     0.0045     11.270      0.2113291200200316 
 3.3113E+02   1.50E-01      0.693     0.0056     11.138      0.2543291200200317 
 3.3884E+02   1.55E-01      0.692     0.0052     11.170      0.2363291200200318 
 3.4674E+02   1.61E-01      0.689     0.0056     11.320      0.2553291200200319 
 3.5481E+02   1.66E-01      0.685     0.0051     11.496      0.2363291200200320 
 3.6308E+02   1.72E-01      0.691     0.0049     11.203      0.2253291200200321 
 3.7154E+02   1.78E-01      0.689     0.0053     11.322      0.2443291200200322 
 3.8019E+02   1.85E-01      0.686     0.0043     11.454      0.2033291200200323 
 3.8905E+02   1.91E-01      0.683     0.0067     11.584      0.3073291200200324 
 3.9811E+02   1.98E-01      0.688     0.0048     11.357      0.2243291200200325 
 4.0738E+02   2.05E-01      0.684     0.0054     11.527      0.2503291200200326 
 4.1687E+02   2.12E-01      0.688     0.0041     11.338      0.1913291200200327 
 4.2658E+02   2.19E-01      0.685     0.0039     11.501      0.1883291200200328 
 4.3652E+02   2.27E-01      0.690     0.0040     11.274      0.1873291200200329 
 4.4668E+02   2.35E-01      0.686     0.0045     11.421      0.2093291200200330 
 4.5709E+02   2.43E-01      0.685     0.0034     11.458      0.1673291200200331 
 4.6774E+02   2.52E-01      0.685     0.0038     11.476      0.1833291200200332 
 4.7863E+02   2.61E-01      0.687     0.0035     11.377      0.1703291200200333 
 4.8978E+02   2.70E-01      0.686     0.0037     11.424      0.1763291200200334 
 5.0119E+02   2.79E-01      0.690     0.0031     11.247      0.1523291200200335 
 5.1286E+02   2.89E-01      0.690     0.0037     11.261      0.1743291200200336 
 5.2481E+02   2.99E-01      0.688     0.0035     11.364      0.1683291200200337 
 5.3703E+02   3.10E-01      0.689     0.0042     11.324      0.1983291200200338 
 5.4954E+02   3.21E-01      0.685     0.0046     11.473      0.2173291200200339 
 5.6234E+02   3.32E-01      0.686     0.0034     11.445      0.1653291200200340 
 5.7544E+02   3.44E-01      0.691     0.0039     11.203      0.1853291200200341 
 5.8884E+02   3.56E-01      0.685     0.0036     11.476      0.1743291200200342 
 6.0256E+02   3.68E-01      0.689     0.0038     11.286      0.1813291200200343 
 6.1660E+02   3.81E-01      0.689     0.0043     11.320      0.2013291200200344 
 6.3096E+02   3.94E-01      0.686     0.0037     11.434      0.1793291200200345 
 6.4565E+02   4.08E-01      0.687     0.0048     11.401      0.2243291200200346 
 6.6069E+02   4.23E-01      0.692     0.0043     11.157      0.2013291200200347 
 6.7608E+02   4.38E-01      0.695     0.0042     11.042      0.1953291200200348 
 6.9183E+02   4.53E-01      0.687     0.0038     11.386      0.1833291200200349 
 7.0795E+02   4.69E-01      0.688     0.0044     11.349      0.2073291200200350 
 7.2444E+02   4.85E-01      0.691     0.0048     11.210      0.2233291200200351 
 7.4131E+02   5.02E-01      0.689     0.0049     11.289      0.2253291200200352 
 7.5858E+02   5.20E-01      0.687     0.0039     11.388      0.1833291200200353 
 7.7625E+02   5.38E-01      0.693     0.0036     11.109      0.1713291200200354 
 7.9433E+02   5.57E-01      0.690     0.0056     11.270      0.2563291200200355 
 8.1283E+02   5.77E-01      0.683     0.0056     11.555      0.2593291200200356 
 8.3176E+02   5.97E-01      0.689     0.0046     11.295      0.2143291200200357 
 8.5114E+02   6.18E-01      0.691     0.0046     11.200      0.2113291200200358 
 8.7096E+02   6.40E-01      0.687     0.0046     11.400      0.2133291200200359 
 8.9125E+02   6.62E-01      0.687     0.0038     11.406      0.1813291200200360 
 9.1201E+02   6.86E-01      0.689     0.0035     11.291      0.1683291200200361 
 9.3325E+02   7.10E-01      0.692     0.0052     11.176      0.2383291200200362 
 9.5499E+02   7.35E-01      0.688     0.0066     11.332      0.2983291200200363 
 9.7724E+02   7.60E-01      0.690     0.0050     11.240      0.2293291200200364 
 1.0000E+03   7.87E-01      0.686     0.0051     11.424      0.2353291200200365 
 1.0233E+03   8.15E-01      0.691     0.0048     11.220      0.2193291200200366 
 1.0471E+03   8.43E-01      0.689     0.0031     11.285      0.1543291200200367 
 1.0715E+03   8.73E-01      0.686     0.0050     11.454      0.2333291200200368 
 1.0965E+03   9.04E-01      0.686     0.0064     11.452      0.2903291200200369 
 1.1220E+03   9.35E-01      0.683     0.0048     11.545      0.2243291200200370 
 1.1482E+03   9.68E-01      0.684     0.0038     11.540      0.1813291200200371 
 1.1749E+03   1.00E+00      0.686     0.0046     11.445      0.2133291200200372 
 1.2023E+03   1.04E+00      0.686     0.0041     11.438      0.1953291200200373 
 1.2303E+03   1.07E+00      0.685     0.0044     11.475      0.2093291200200374 
 1.2589E+03   1.11E+00      0.687     0.0050     11.373      0.2293291200200375 
 1.2883E+03   1.15E+00      0.696     0.0044     11.015      0.2023291200200376 
 1.3183E+03   1.19E+00      0.692     0.0039     11.191      0.1853291200200377 
 1.3490E+03   1.23E+00      0.690     0.0035     11.253      0.1683291200200378 
 1.3804E+03   1.28E+00      0.695     0.0044     11.059      0.2043291200200379 
 1.4125E+03   1.32E+00      0.690     0.0052     11.270      0.2393291200200380 
 1.4454E+03   1.37E+00      0.687     0.0043     11.379      0.2033291200200381 
 1.4791E+03   1.42E+00      0.690     0.0051     11.258      0.2353291200200382 
 1.5136E+03   1.47E+00      0.685     0.0054     11.493      0.2493291200200383 
 1.5488E+03   1.52E+00      0.696     0.0048     10.982      0.2173291200200384 
 1.5849E+03   1.57E+00      0.690     0.0046     11.257      0.2133291200200385 
 1.6218E+03   1.63E+00      0.694     0.0044     11.099      0.2043291200200386 
 1.6596E+03   1.68E+00      0.636     0.0037     13.710      0.1953291200200387 
 1.6982E+03   1.74E+00      0.684     0.0040     11.530      0.1913291200200388 
 1.7378E+03   1.80E+00      0.683     0.0041     11.570      0.1933291200200389 
 1.7783E+03   1.87E+00      0.690     0.0054     11.264      0.2473291200200390 
 1.8197E+03   1.93E+00      0.685     0.0045     11.459      0.2123291200200391 
 1.8621E+03   2.00E+00      0.686     0.0044     11.423      0.2083291200200392 
 1.9055E+03   2.07E+00      0.687     0.0041     11.400      0.1923291200200393 
 1.9498E+03   2.14E+00      0.690     0.0034     11.275      0.1633291200200394 
 1.9953E+03   2.22E+00      0.688     0.0054     11.329      0.2493291200200395 
 2.0417E+03   2.30E+00      0.683     0.0049     11.568      0.2303291200200396 
 2.0893E+03   2.38E+00      0.690     0.0056     11.253      0.2563291200200397 
 2.1380E+03   2.46E+00      0.686     0.0051     11.424      0.2343291200200398 
 2.1878E+03   2.55E+00      0.687     0.0049     11.402      0.2263291200200399 
 2.2387E+03   2.64E+00      0.683     0.0049     11.558      0.2293291200200400 
 2.2909E+03   2.73E+00      0.694     0.0049     11.071      0.2263291200200401 
 2.3442E+03   2.83E+00      0.685     0.0051     11.480      0.2353291200200402 
 2.3988E+03   2.92E+00      0.687     0.0049     11.405      0.2253291200200403 
 2.4547E+03   3.03E+00      0.631     0.0041     13.967      0.2153291200200404 
 2.5119E+03   3.13E+00      0.681     0.0042     11.647      0.1983291200200405 
 2.5704E+03   3.24E+00      0.690     0.0045     11.276      0.2113291200200406 
 2.6303E+03   3.36E+00      0.684     0.0065     11.541      0.2953291200200407 
 2.6915E+03   3.48E+00      0.686     0.0044     11.414      0.2053291200200408 
 2.7542E+03   3.60E+00      0.691     0.0049     11.234      0.2263291200200409 
 2.8184E+03   3.72E+00      0.686     0.0042     11.451      0.1983291200200410 
 2.8840E+03   3.85E+00      0.686     0.0046     11.416      0.2163291200200411 
 2.9512E+03   3.99E+00      0.694     0.0045     11.104      0.2083291200200412 
 3.0200E+03   4.13E+00      0.685     0.0054     11.495      0.2503291200200413 
 3.0903E+03   4.28E+00      0.696     0.0050     11.009      0.2263291200200414 
 3.1623E+03   4.43E+00      0.694     0.0053     11.073      0.2403291200200415 
 3.2359E+03   4.58E+00      0.692     0.0042     11.180      0.1973291200200416 
 3.3113E+03   4.74E+00      0.668     0.0044     12.253      0.2133291200200417 
 3.3884E+03   4.91E+00      0.688     0.0050     11.359      0.2323291200200418 
 3.4674E+03   5.08E+00      0.691     0.0048     11.223      0.2233291200200419 
 3.5481E+03   5.26E+00      0.690     0.0046     11.253      0.2153291200200420 
 3.6308E+03   5.45E+00      0.697     0.0042     10.937      0.1923291200200421 
 3.7154E+03   5.64E+00      0.692     0.0044     11.160      0.2063291200200422 
 3.8019E+03   5.83E+00      0.689     0.0057     11.287      0.2613291200200423 
 3.8905E+03   6.04E+00      0.698     0.0051     10.929      0.2303291200200424 
 3.9811E+03   6.25E+00      0.691     0.0049     11.212      0.2273291200200425 
 4.0738E+03   6.47E+00      0.687     0.0046     11.377      0.2163291200200426 
 4.1687E+03   6.70E+00      0.684     0.0048     11.507      0.2243291200200427 
 4.2658E+03   6.93E+00      0.687     0.0047     11.373      0.2193291200200428 
 4.3652E+03   7.18E+00      0.689     0.0048     11.280      0.2223291200200429 
 4.4668E+03   7.43E+00      0.692     0.0047     11.162      0.2163291200200430 
 4.5709E+03   7.69E+00      0.689     0.0048     11.305      0.2233291200200431 
 4.6774E+03   7.96E+00      0.694     0.0044     11.095      0.2043291200200432 
 4.7863E+03   8.24E+00      0.692     0.0050     11.175      0.2283291200200433 
 4.8978E+03   8.53E+00      0.689     0.0048     11.283      0.2243291200200434 
 5.0119E+03   8.83E+00      0.690     0.0045     11.263      0.2103291200200435 
 5.1286E+03   9.14E+00      0.693     0.0054     11.120      0.2443291200200436 
 5.2481E+03   9.46E+00      0.689     0.0044     11.284      0.2063291200200437 
 5.3703E+03   9.80E+00      0.691     0.0048     11.213      0.2203291200200438 
 5.4954E+03   1.01E+01      0.692     0.0042     11.177      0.1953291200200439 
 5.6234E+03   1.05E+01      0.692     0.0054     11.172      0.2473291200200440 
 5.7544E+03   1.09E+01      0.686     0.0051     11.419      0.2353291200200441 
 5.8884E+03   1.12E+01      0.688     0.0048     11.351      0.2233291200200442 
 6.0256E+03   1.16E+01      0.694     0.0053     11.066      0.2403291200200443 
 6.1660E+03   1.21E+01      0.698     0.0054     10.894      0.2423291200200444 
 6.3096E+03   1.25E+01      0.696     0.0049     11.014      0.2253291200200445 
 6.4565E+03   1.29E+01      0.693     0.0050     11.118      0.2303291200200446 
 6.6069E+03   1.34E+01      0.678     0.0049     11.769      0.2323291200200447 
 6.7608E+03   1.38E+01      0.690     0.0048     11.273      0.2223291200200448 
 6.9183E+03   1.43E+01      0.686     0.0047     11.431      0.2203291200200449 
 7.0795E+03   1.48E+01      0.692     0.0052     11.165      0.2383291200200450 
 7.2444E+03   1.53E+01      0.690     0.0046     11.261      0.2123291200200451 
 7.4131E+03   1.59E+01      0.690     0.0050     11.247      0.2323291200200452 
 7.5858E+03   1.64E+01      0.689     0.0058     11.283      0.2663291200200453 
 7.7625E+03   1.70E+01      0.695     0.0059     11.032      0.2653291200200454 
 7.9433E+03   1.76E+01      0.691     0.0056     11.207      0.2563291200200455 
 8.1283E+03   1.82E+01      0.673     0.0055     11.998      0.2603291200200456 
 8.3176E+03   1.89E+01      0.672     0.0053     12.075      0.2513291200200457 
 8.5114E+03   1.95E+01      0.685     0.0050     11.480      0.2323291200200458 
 8.7096E+03   2.02E+01      0.689     0.0051     11.298      0.2343291200200459 
 8.9125E+03   2.09E+01      0.689     0.0048     11.308      0.2223291200200460 
 9.1201E+03   2.17E+01      0.696     0.0047     11.005      0.2143291200200461 
 9.3325E+03   2.24E+01      0.691     0.0051     11.215      0.2363291200200462 
 9.5499E+03   2.32E+01      0.694     0.0053     11.071      0.2413291200200463 
 9.7724E+03   2.40E+01      0.696     0.0049     11.016      0.2233291200200464 
 1.0000E+04   2.49E+01      0.694     0.0051     11.065      0.2303291200200465 
 1.0157E+04   2.55E+01      0.692     0.0052     11.138      0.4933291200200466 
 1.0390E+04   2.64E+01      0.711     0.0051     10.350      0.4603291200200467 
 1.0629E+04   2.73E+01      0.695     0.0047     11.021      0.4463291200200468 
 1.0874E+04   2.82E+01      0.699     0.0051     10.836      0.4743291200200469 
 1.1124E+04   2.92E+01      0.690     0.0048     11.221      0.4623291200200470 
 1.1379E+04   3.02E+01      0.696     0.0047     10.989      0.4373291200200471 
 1.1641E+04   3.13E+01      0.699     0.0052     10.825      0.4983291200200472 
 1.1909E+04   3.23E+01      0.695     0.0049     11.037      0.4613291200200473 
 1.2183E+04   3.35E+01      0.690     0.0051     11.254      0.4913291200200474 
 1.2463E+04   3.46E+01      0.693     0.0057     11.090      0.5403291200200475 
 1.2749E+04   3.58E+01      0.691     0.0049     11.203      0.4663291200200476 
 1.3043E+04   3.71E+01      0.685     0.0047     11.450      0.4473291200200477 
 1.3343E+04   3.84E+01      0.699     0.0050     10.850      0.4793291200200478 
 1.3649E+04   3.97E+01      0.705     0.0052     10.572      0.4813291200200479 
 1.3963E+04   4.11E+01      0.699     0.0048     10.857      0.4433291200200480 
 1.4284E+04   4.25E+01      0.698     0.0048     10.867      0.4543291200200481 
 1.4613E+04   4.40E+01      0.701     0.0048     10.778      0.4553291200200482 
 1.4949E+04   4.55E+01      0.700     0.0049     10.822      0.4573291200200483 
 1.5293E+04   4.71E+01      0.698     0.0054     10.903      0.5173291200200484 
 1.5644E+04   4.87E+01      0.689     0.0061     11.275      0.5743291200200485 
 1.6004E+04   5.04E+01      0.700     0.0055     10.785      0.5163291200200486 
 1.6372E+04   5.21E+01      0.660     0.0053     12.603      0.5353291200200487 
 1.6748E+04   5.39E+01      0.647     0.0053     13.194      0.5323291200200488 
 1.7134E+04   5.58E+01      0.696     0.0054     10.967      0.5073291200200489 
 1.7528E+04   5.78E+01      0.705     0.0050     10.569      0.4503291200200490 
 1.7931E+04   5.98E+01      0.690     0.0049     11.228      0.4853291200200491 
 1.8343E+04   6.18E+01      0.699     0.0053     10.856      0.4903291200200492 
 1.8765E+04   6.40E+01      0.699     0.0051     10.846      0.4873291200200493 
 1.9196E+04   6.62E+01      0.707     0.0052     10.497      0.4733291200200494 
 1.9638E+04   6.85E+01      0.695     0.0048     11.012      0.4543291200200495 
 2.0089E+04   7.09E+01      0.697     0.0047     10.918      0.4403291200200496 
 2.0551E+04   7.33E+01      0.707     0.0051     10.495      0.4753291200200497 
 2.1024E+04   7.59E+01      0.701     0.0049     10.779      0.4443291200200498 
 2.1507E+04   7.85E+01      0.709     0.0043     10.435      0.4033291200200499 
 2.2002E+04   8.12E+01      0.696     0.0043     10.969      0.3993291200200500 
 2.2508E+04   8.40E+01      0.699     0.0048     10.834      0.4673291200200501 
 2.3025E+04   8.70E+01      0.713     0.0049     10.251      0.4383291200200502 
 2.3555E+04   9.00E+01      0.698     0.0043     10.881      0.3943291200200503 
 2.4096E+04   9.31E+01      0.718     0.0041     10.041      0.3733291200200504 
 2.4651E+04   9.63E+01      0.683     0.0039     11.540      0.3753291200200505 
 2.5217E+04   9.97E+01      0.643     0.0034     13.388      0.3573291200200506 
 2.5797E+04   1.03E+02      0.697     0.0036     10.952      0.3423291200200507 
 2.6391E+04   1.07E+02      0.716     0.0041     10.134      0.3923291200200508 
 2.6997E+04   1.10E+02      0.707     0.0052     10.505      0.4943291200200509 
 2.7618E+04   1.14E+02      0.701     0.0065     10.757      0.5923291200200510 
 2.8253E+04   1.18E+02      0.696     0.0060     10.977      0.5603291200200511 
 2.8903E+04   1.22E+02      0.696     0.0052     10.995      0.4833291200200512 
 2.9568E+04   1.27E+02      0.717     0.0051     10.065      0.4533291200200513 
 3.0248E+04   1.31E+02      0.713     0.0050     10.237      0.4593291200200514 
 3.0943E+04   1.35E+02      0.723     0.0049      9.813      0.4243291200200515 
 3.1655E+04   1.40E+02      0.710     0.0048     10.385      0.4523291200200516 
 3.2383E+04   1.45E+02      0.721     0.0049      9.895      0.4523291200200517 
 3.3127E+04   1.50E+02      0.709     0.0051     10.409      0.4643291200200518 
 3.3889E+04   1.55E+02      0.714     0.0056     10.187      0.5363291200200519 
 3.4668E+04   1.61E+02      0.715     0.0059     10.140      0.5233291200200520 
 3.5466E+04   1.66E+02      0.727     0.0060      9.661      0.5153291200200521 
 3.6281E+04   1.72E+02      0.717     0.0054     10.089      0.4793291200200522 
 3.7115E+04   1.78E+02      0.700     0.0049     10.819      0.4523291200200523 
 3.7969E+04   1.84E+02      0.730     0.0051      9.516      0.4473291200200524 
 3.8842E+04   1.91E+02      0.755     0.0049      8.511      0.4203291200200525 
 3.9735E+04   1.97E+02      0.722     0.0046      9.844      0.4183291200200526 
 4.0738E+04   2.05E+02      0.607     0.0038     15.111      0.4353291200200527 
 4.1687E+04   2.12E+02      0.591     0.0036     15.927      0.4083291200200528 
 4.2658E+04   2.19E+02      0.614     0.0036     14.772      0.4133291200200529 
 4.3652E+04   2.27E+02      0.657     0.0038     12.703      0.3833291200200530 
 4.4668E+04   2.35E+02      0.657     0.0037     12.730      0.4013291200200531 
 4.5709E+04   2.43E+02      0.664     0.0037     12.382      0.3693291200200532 
 4.6774E+04   2.52E+02      0.649     0.0035     13.085      0.3683291200200533 
 4.7863E+04   2.61E+02      0.683     0.0036     11.547      0.3553291200200534 
 4.8978E+04   2.70E+02      0.683     0.0037     11.538      0.3683291200200535 
 5.0119E+04   2.79E+02      0.682     0.0039     11.575      0.3903291200200536 
 5.1286E+04   2.89E+02      0.693     0.0039     11.091      0.3873291200200537 
 5.2481E+04   2.99E+02      0.695     0.0038     11.037      0.3723291200200538 
 5.3703E+04   3.10E+02      0.698     0.0037     10.881      0.3443291200200539 
 5.4954E+04   3.21E+02      0.695     0.0036     11.002      0.3483291200200540 
 5.6234E+04   3.32E+02      0.701     0.0036     10.741      0.3633291200200541 
 5.7544E+04   3.44E+02      0.697     0.0034     10.924      0.3213291200200542 
 5.8884E+04   3.56E+02      0.702     0.0035     10.715      0.3473291200200543 
 6.0256E+04   3.68E+02      0.708     0.0034     10.446      0.3133291200200544 
 6.1660E+04   3.81E+02      0.712     0.0035     10.294      0.3233291200200545 
 6.3096E+04   3.94E+02      0.700     0.0034     10.788      0.3243291200200546 
 6.4565E+04   4.08E+02      0.712     0.0034     10.305      0.3223291200200547 
 6.6069E+04   4.23E+02      0.699     0.0033     10.848      0.3163291200200548 
 6.7608E+04   4.38E+02      0.674     0.0032     11.938      0.3243291200200549 
 6.9183E+04   4.53E+02      0.670     0.0031     12.113      0.3183291200200550 
 7.0795E+04   4.69E+02      0.696     0.0033     10.987      0.3293291200200551 
 7.2444E+04   4.85E+02      0.715     0.0033     10.150      0.3033291200200552 
 7.4131E+04   5.02E+02      0.609     0.0032     15.039      0.3693291200200553 
 7.5858E+04   5.20E+02      0.626     0.0031     14.190      0.3423291200200554 
 7.7625E+04   5.38E+02      0.471     0.0025     22.813      0.3993291200200555 
 7.9433E+04   5.57E+02      0.640     0.0032     13.507      0.3663291200200556 
 8.1283E+04   5.77E+02      0.661     0.0033     12.559      0.3273291200200557 
 8.3176E+04   5.97E+02      0.717     0.0042     10.082      0.3613291200200558 
 8.5114E+04   6.18E+02      0.709     0.0041     10.432      0.4053291200200559 
 8.7096E+04   6.40E+02      0.697     0.0040     10.934      0.3753291200200560 
 8.9125E+04   6.62E+02      0.675     0.0036     11.890      0.3553291200200561 
 9.1201E+04   6.86E+02      0.711     0.0036     10.335      0.3353291200200562 
 9.3325E+04   7.10E+02      0.714     0.0035     10.223      0.3213291200200563 
 9.5499E+04   7.35E+02      0.719     0.0035     10.010      0.3453291200200564 
 9.7724E+04   7.60E+02      0.711     0.0033     10.351      0.3153291200200565 
 1.0000E+05   7.87E+02      0.724     0.0032      9.794      0.2763291200200566 
 1.0233E+05   8.15E+02      0.708     0.0031     10.468      0.2973291200200567 
 1.0471E+05   8.43E+02      0.732     0.0031      9.441      0.2903291200200568 
 1.0715E+05   8.73E+02      0.716     0.0030     10.115      0.2833291200200569 
 1.0965E+05   9.04E+02      0.693     0.0029     11.091      0.2903291200200570 
 1.1220E+05   9.36E+02      0.716     0.0030     10.119      0.2713291200200571 
 1.1482E+05   9.68E+02      0.676     0.0028     11.865      0.2923291200200572 
 1.1749E+05   1.00E+03      0.692     0.0029     11.171      0.2703291200200573 
 1.2023E+05   1.04E+03      0.713     0.0030     10.249      0.2913291200200574 
 1.2303E+05   1.07E+03      0.686     0.0027     11.428      0.2643291200200575 
 1.2589E+05   1.11E+03      0.712     0.0026     10.287      0.2663291200200576 
 1.2883E+05   1.15E+03      0.730     0.0028      9.510      0.2403291200200577 
 1.3183E+05   1.19E+03      0.730     0.0027      9.544      0.2493291200200578 
 1.3490E+05   1.23E+03      0.737     0.0028      9.248      0.2703291200200579 
 1.3804E+05   1.28E+03      0.725     0.0030      9.741      0.2593291200200580 
 1.4125E+05   1.32E+03      0.716     0.0032     10.101      0.2893291200200581 
 1.4454E+05   1.37E+03      0.732     0.0031      9.440      0.2913291200200582 
 1.4791E+05   1.42E+03      0.706     0.0030     10.543      0.2853291200200583 
 1.5136E+05   1.47E+03      0.737     0.0030      9.241      0.2773291200200584 
 1.5488E+05   1.52E+03      0.736     0.0030      9.273      0.2653291200200585 
 1.5849E+05   1.57E+03      0.728     0.0030      9.607      0.2683291200200586 
 1.6218E+05   1.63E+03      0.744     0.0028      8.954      0.2643291200200587 
 1.6596E+05   1.68E+03      0.746     0.0027      8.876      0.2523291200200588 
 1.6982E+05   1.74E+03      0.749     0.0028      8.737      0.2483291200200589 
 1.7378E+05   1.80E+03      0.752     0.0027      8.634      0.2213291200200590 
 1.7783E+05   1.87E+03      0.747     0.0026      8.837      0.2423291200200591 
 1.8197E+05   1.93E+03      0.762     0.0026      8.224      0.2383291200200592 
 1.8621E+05   2.00E+03      0.755     0.0027      8.495      0.2153291200200593 
 1.9055E+05   2.07E+03      0.766     0.0027      8.060      0.2523291200200594 
 1.9498E+05   2.14E+03      0.758     0.0027      8.390      0.2483291200200595 
 1.9953E+05   2.22E+03      0.767     0.0027      8.040      0.2233291200200596 
 2.0417E+05   2.30E+03      0.784     0.0027      7.356      0.2443291200200597 
 2.0893E+05   2.38E+03      0.745     0.0026      8.901      0.2213291200200598 
 2.1380E+05   2.46E+03      0.776     0.0026      7.663      0.2183291200200599 
 2.1878E+05   2.55E+03      0.768     0.0026      8.002      0.2373291200200600 
 2.2387E+05   2.64E+03      0.759     0.0026      8.344      0.2153291200200601 
 2.2909E+05   2.73E+03      0.757     0.0025      8.448      0.2163291200200602 
 2.3442E+05   2.83E+03      0.764     0.0025      8.162      0.2373291200200603 
 2.3988E+05   2.92E+03      0.766     0.0024      8.075      0.2103291200200604 
 2.4547E+05   3.03E+03      0.762     0.0024      8.240      0.2043291200200605 
 2.5119E+05   3.13E+03      0.772     0.0024      7.837      0.2053291200200606 
 2.5704E+05   3.24E+03      0.756     0.0023      8.461      0.2063291200200607 
 2.6303E+05   3.36E+03      0.766     0.0023      8.089      0.2083291200200608 
 2.6915E+05   3.48E+03      0.775     0.0023      7.727      0.2033291200200609 
 2.7542E+05   3.60E+03      0.760     0.0024      8.317      0.2043291200200610 
 2.8184E+05   3.72E+03      0.772     0.0024      7.854      0.2123291200200611 
 2.8840E+05   3.86E+03      0.782     0.0024      7.440      0.2103291200200612 
 2.9512E+05   3.99E+03      0.803     0.0024      6.641      0.2053291200200613 
 3.0200E+05   4.13E+03      0.807     0.0023      6.502      0.2003291200200614 
 3.0903E+05   4.28E+03      0.806     0.0023      6.536      0.1963291200200615 
 3.1623E+05   4.43E+03      0.779     0.0023      7.566      0.1973291200200616 
 3.2359E+05   4.58E+03      0.783     0.0022      7.390      0.1733291200200617 
 3.3113E+05   4.74E+03      0.800     0.0022      6.762      0.1993291200200618 
 3.3884E+05   4.91E+03      0.815     0.0022      6.180      0.1953291200200619 
 3.4674E+05   5.08E+03      0.742     0.0020      9.031      0.1683291200200620 
 3.5481E+05   5.26E+03      0.743     0.0020      8.991      0.1943291200200621 
 3.6308E+05   5.45E+03      0.787     0.0022      7.257      0.1993291200200622 
 3.7154E+05   5.64E+03      0.805     0.0021      6.587      0.1693291200200623 
 3.8019E+05   5.84E+03      0.797     0.0021      6.869      0.1943291200200624 
 3.8905E+05   6.04E+03      0.792     0.0022      7.050      0.1683291200200625 
 3.9811E+05   6.25E+03      0.796     0.0022      6.923      0.1993291200200626 
 4.0738E+05   6.47E+03      0.797     0.0022      6.862      0.1713291200200627 
 4.1687E+05   6.70E+03      0.826     0.0023      5.806      0.2003291200200628 
 4.2658E+05   6.94E+03      0.851     0.0023      4.871      0.1713291200200629 
 4.3652E+05   7.18E+03      0.844     0.0023      5.122      0.1693291200200630 
 4.4668E+05   7.43E+03      0.848     0.0023      5.004      0.1963291200200631 
 4.5709E+05   7.69E+03      0.852     0.0022      4.857      0.1653291200200632 
 4.6774E+05   7.96E+03      0.825     0.0021      5.833      0.1633291200200633 
 4.7863E+05   8.24E+03      0.852     0.0022      4.868      0.1893291200200634 
 4.8978E+05   8.53E+03      0.878     0.0022      3.924      0.1623291200200635 
 5.0119E+05   8.83E+03      0.868     0.0021      4.286      0.1583291200200636 
 5.1286E+05   9.15E+03      0.838     0.0021      5.346      0.1573291200200637 
 5.2481E+05   9.47E+03      0.799     0.0020      6.779      0.1873291200200638 
 5.3703E+05   9.80E+03      0.827     0.0020      5.768      0.1623291200200639 
 5.4954E+05   1.01E+04      0.846     0.0020      5.080      0.1613291200200640 
 5.6234E+05   1.05E+04      0.828     0.0020      5.708      0.1613291200200641 
 5.7544E+05   1.09E+04      0.827     0.0020      5.754      0.1623291200200642 
 5.8884E+05   1.13E+04      0.828     0.0020      5.721      0.1633291200200643 
 6.0256E+05   1.16E+04      0.829     0.0020      5.682      0.1613291200200644 
 6.1660E+05   1.21E+04      0.827     0.0020      5.742      0.1603291200200645 
 6.3096E+05   1.25E+04      0.818     0.0020      6.074      0.1623291200200646 
 6.4565E+05   1.29E+04      0.832     0.0020      5.558      0.1623291200200647 
 6.6069E+05   1.34E+04      0.840     0.0020      5.281      0.1633291200200648 
 6.7608E+05   1.38E+04      0.836     0.0020      5.409      0.1623291200200649 
 6.9183E+05   1.43E+04      0.829     0.0020      5.692      0.1643291200200650 
 7.0795E+05   1.48E+04      0.810     0.0019      6.390      0.1663291200200651 
 7.2444E+05   1.54E+04      0.814     0.0019      6.215      0.1663291200200652 
 7.4131E+05   1.59E+04      0.833     0.0020      5.551      0.1303291200200653 
 7.5858E+05   1.65E+04      0.832     0.0020      5.581      0.1673291200200654 
 7.7625E+05   1.70E+04      0.842     0.0020      5.217      0.1693291200200655 
 7.9433E+05   1.76E+04      0.832     0.0020      5.585      0.1703291200200656 
 8.1283E+05   1.83E+04      0.798     0.0019      6.831      0.1723291200200657 
 8.3176E+05   1.89E+04      0.822     0.0020      5.921      0.1343291200200658 
 8.5114E+05   1.96E+04      0.822     0.0020      5.929      0.1733291200200659 
 8.7096E+05   2.02E+04      0.835     0.0020      5.460      0.1733291200200660 
 8.9125E+05   2.10E+04      0.847     0.0020      5.043      0.1343291200200661 
 9.1201E+05   2.17E+04      0.851     0.0020      4.891      0.1713291200200662 
 9.3325E+05   2.25E+04      0.836     0.0020      5.443      0.1713291200200663 
 9.5499E+05   2.32E+04      0.836     0.0020      5.437      0.1343291200200664 
 9.7724E+05   2.41E+04      0.834     0.0020      5.505      0.1743291200200665 
 1.0000E+06   2.49E+04      0.852     0.0020      4.851      0.1363291200200666 
 1.0233E+06   2.58E+04      0.846     0.0020      5.048      0.1773291200200667 
 1.0471E+06   2.67E+04      0.845     0.0020      5.113      0.1773291200200668 
 1.0715E+06   2.76E+04      0.860     0.0020      4.580      0.1383291200200669 
 1.0965E+06   2.86E+04      0.836     0.0020      5.416      0.1823291200200670 
 1.1220E+06   2.96E+04      0.836     0.0020      5.439      0.1403291200200671 
 1.1482E+06   3.06E+04      0.838     0.0020      5.362      0.1833291200200672 
 1.1749E+06   3.17E+04      0.843     0.0021      5.184      0.1433291200200673 
 1.2023E+06   3.28E+04      0.845     0.0021      5.093      0.1443291200200674 
 1.2303E+06   3.40E+04      0.841     0.0021      5.244      0.1903291200200675 
 1.2589E+06   3.52E+04      0.841     0.0021      5.235      0.1473291200200676 
 1.2883E+06   3.64E+04      0.842     0.0021      5.219      0.1943291200200677 
 1.3183E+06   3.77E+04      0.844     0.0021      5.135      0.1503291200200678 
 1.3490E+06   3.90E+04      0.839     0.0021      5.321      0.1523291200200679 
 1.3804E+06   4.04E+04      0.830     0.0021      5.631      0.1993291200200680 
 1.4125E+06   4.18E+04      0.831     0.0021      5.614      0.1543291200200681 
 1.4454E+06   4.33E+04      0.830     0.0021      5.656      0.1563291200200682 
 1.4791E+06   4.48E+04      0.833     0.0021      5.538      0.2063291200200683 
 1.5136E+06   4.64E+04      0.845     0.0022      5.104      0.1583291200200684 
 1.5488E+06   4.80E+04      0.848     0.0022      4.986      0.1583291200200685 
 1.5849E+06   4.97E+04      0.841     0.0022      5.229      0.2093291200200686 
 1.6218E+06   5.15E+04      0.829     0.0022      5.690      0.1623291200200687 
 1.6596E+06   5.33E+04      0.813     0.0021      6.265      0.1663291200200688 
 1.6982E+06   5.52E+04      0.801     0.0021      6.709      0.1673291200200689 
 1.7378E+06   5.71E+04      0.815     0.0022      6.197      0.1683291200200690 
 1.7783E+06   5.91E+04      0.828     0.0022      5.729      0.2223291200200691 
 1.8197E+06   6.12E+04      0.833     0.0022      5.519      0.1703291200200692 
 1.8621E+06   6.33E+04      0.837     0.0023      5.396      0.1713291200200693 
 1.9055E+06   6.56E+04      0.821     0.0022      5.973      0.1733291200200694 
 1.9498E+06   6.79E+04      0.826     0.0023      5.798      0.1743291200200695 
 1.9953E+06   7.03E+04      0.812     0.0022      6.323      0.1773291200200696 
 2.0417E+06   7.27E+04      0.804     0.0022      6.623      0.2353291200200697 
 2.0893E+06   7.53E+04      0.799     0.0022      6.815      0.1803291200200698 
 2.1380E+06   7.79E+04      0.803     0.0023      6.661      0.1833291200200699 
 2.1878E+06   8.07E+04      0.799     0.0023      6.807      0.1863291200200700 
 2.2387E+06   8.35E+04      0.793     0.0023      7.042      0.1883291200200701 
 2.2909E+06   8.65E+04      0.788     0.0023      7.201      0.1903291200200702 
 2.3442E+06   8.95E+04      0.785     0.0023      7.337      0.1923291200200703 
 2.3988E+06   9.27E+04      0.785     0.0023      7.350      0.1953291200200704 
 2.4547E+06   9.59E+04      0.786     0.0023      7.282      0.1963291200200705 
 2.5119E+06   9.93E+04      0.789     0.0023      7.191      0.1983291200200706 
 2.5704E+06   1.03E+05      0.786     0.0023      7.311      0.2013291200200707 
 2.6303E+06   1.06E+05      0.784     0.0023      7.382      0.2033291200200708 
 2.6915E+06   1.10E+05      0.786     0.0023      7.278      0.2053291200200709 
 2.7542E+06   1.14E+05      0.782     0.0023      7.463      0.2053291200200710 
 2.8184E+06   1.18E+05      0.781     0.0023      7.505      0.2043291200200711 
 2.8840E+06   1.22E+05      0.774     0.0023      7.763      0.2053291200200712 
 2.9512E+06   1.26E+05      0.766     0.0023      8.074      0.2073291200200713 
 3.0200E+06   1.31E+05      0.770     0.0023      7.904      0.2083291200200714 
 3.0903E+06   1.36E+05      0.772     0.0023      7.838      0.2103291200200715 
 3.1623E+06   1.40E+05      0.770     0.0023      7.899      0.2123291200200716 
 3.2359E+06   1.45E+05      0.763     0.0024      8.205      0.2143291200200717 
 3.3113E+06   1.50E+05      0.765     0.0024      8.119      0.2183291200200718 
 3.3884E+06   1.56E+05      0.770     0.0024      7.913      0.2213291200200719 
 3.4674E+06   1.61E+05      0.771     0.0025      7.864      0.2253291200200720 
 3.5481E+06   1.67E+05      0.776     0.0025      7.679      0.2283291200200721 
 3.6308E+06   1.73E+05      0.770     0.0026      7.896      0.2313291200200722 
 3.7154E+06   1.79E+05      0.768     0.0026      8.004      0.2353291200200723 
 3.8019E+06   1.85E+05      0.770     0.0026      7.915      0.2393291200200724 
 3.8905E+06   1.92E+05      0.770     0.0026      7.919      0.2433291200200725 
 3.9811E+06   1.98E+05      0.762     0.0026      8.212      0.2463291200200726 
 4.0738E+06   2.05E+05      0.770     0.0026      7.916      0.2483291200200727 
 4.1687E+06   2.13E+05      0.768     0.0026      7.997      0.2503291200200728 
 4.2658E+06   2.20E+05      0.773     0.0026      7.798      0.2523291200200729 
 4.3652E+06   2.28E+05      0.773     0.0026      7.800      0.2543291200200730 
 4.4668E+06   2.36E+05      0.775     0.0026      7.723      0.2533291200200731 
 4.5709E+06   2.44E+05      0.779     0.0026      7.560      0.2523291200200732 
 4.6774E+06   2.53E+05      0.777     0.0026      7.654      0.2533291200200733 
 4.7863E+06   2.62E+05      0.785     0.0027      7.344      0.2533291200200734 
 4.8978E+06   2.71E+05      0.785     0.0027      7.320      0.2533291200200735 
 5.0119E+06   2.80E+05      0.783     0.0027      7.401      0.2553291200200736 
 5.1286E+06   2.90E+05      0.783     0.0027      7.420      0.2573291200200737 
 5.2481E+06   3.00E+05      0.790     0.0027      7.124      0.2583291200200738 
 5.3703E+06   3.11E+05      0.797     0.0027      6.887      0.2593291200200739 
 5.4954E+06   3.22E+05      0.794     0.0027      6.973      0.2613291200200740 
 5.6234E+06   3.33E+05      0.797     0.0028      6.884      0.2613291200200741 
 5.7544E+06   3.45E+05      0.795     0.0028      6.947      0.2643291200200742 
 5.8884E+06   3.57E+05      0.797     0.0028      6.883      0.2663291200200743 
 6.0256E+06   3.70E+05      0.801     0.0028      6.715      0.2693291200200744 
 6.1660E+06   3.83E+05      0.804     0.0028      6.604      0.2693291200200745 
 6.3096E+06   3.96E+05      0.811     0.0027      6.357      0.2713291200200746 
 6.4565E+06   4.10E+05      0.820     0.0027      6.014      0.2683291200200747 
 6.6069E+06   4.25E+05      0.820     0.0027      6.010      0.2653291200200748 
 6.7608E+06   4.40E+05      0.825     0.0027      5.809      0.2663291200200749 
 6.9183E+06   4.55E+05      0.823     0.0027      5.884      0.2603291200200750 
 7.0795E+06   4.71E+05      0.826     0.0026      5.808      0.2643291200200751 
 7.2444E+06   4.88E+05      0.826     0.0026      5.795      0.2633291200200752 
 7.4131E+06   5.05E+05      0.834     0.0027      5.514      0.2603291200200753 
 7.5858E+06   5.23E+05      0.829     0.0026      5.665      0.2613291200200754 
 7.7625E+06   5.42E+05      0.827     0.0026      5.769      0.2583291200200755 
 7.9433E+06   5.61E+05      0.831     0.0027      5.621      0.2623291200200756 
 8.1283E+06   5.81E+05      0.840     0.0027      5.278      0.2623291200200757 
 8.3176E+06   6.01E+05      0.843     0.0028      5.158      0.2673291200200758 
 8.5114E+06   6.22E+05      0.854     0.0029      4.762      0.2713291200200759 
 8.9125E+06   6.67E+05      0.859     0.0029      4.619      0.2783291200200760 
 9.1201E+06   6.91E+05      0.849     0.0029      4.948      0.2833291200200761 
 9.3325E+06   7.15E+05      0.842     0.0029      5.205      0.2863291200200762 
 9.5499E+06   7.40E+05      0.839     0.0029      5.322      0.2923291200200763 
 9.7724E+06   7.66E+05      0.839     0.0030      5.328      0.2973291200200764 
 1.0000E+07   7.93E+05      0.845     0.0030      5.103      0.3023291200200765 
 1.0233E+07   8.21E+05      0.846     0.0031      5.051      0.3083291200200766 
 1.0471E+07   8.50E+05      0.841     0.0031      5.237      0.3163291200200767 
 1.0715E+07   8.80E+05      0.838     0.0031      5.348      0.3223291200200768 
 1.0965E+07   9.12E+05      0.835     0.0032      5.476      0.3283291200200769 
 1.1220E+07   9.44E+05      0.827     0.0032      5.736      0.3343291200200770 
 1.1482E+07   9.77E+05      0.836     0.0032      5.432      0.3403291200200771 
 1.1749E+07   1.01E+06      0.838     0.0033      5.357      0.3473291200200772 
 1.2023E+07   1.05E+06      0.838     0.0033      5.359      0.3513291200200773 
 1.2303E+07   1.08E+06      0.840     0.0033      5.296      0.3583291200200774 
 1.2589E+07   1.12E+06      0.849     0.0033      4.964      0.3613291200200775 
 1.2883E+07   1.16E+06      0.846     0.0034      5.065      0.3713291200200776 
 1.3183E+07   1.20E+06      0.841     0.0033      5.240      0.3733291200200777 
 1.3490E+07   1.25E+06      0.834     0.0033      5.503      0.3753291200200778 
 1.3804E+07   1.29E+06      0.814     0.0032      6.248      0.3803291200200779 
 1.4791E+07   1.43E+06      0.805     0.0031      6.566      0.3863291200200780 
 1.5136E+07   1.48E+06      0.809     0.0032      6.428      0.3773291200200781 
 1.5488E+07   1.54E+06      0.813     0.0032      6.266      0.3863291200200782 
 1.5849E+07   1.59E+06      0.828     0.0034      5.700      0.3913291200200783 
 1.6218E+07   1.65E+06      0.827     0.0034      5.769      0.3963291200200784 
 1.6596E+07   1.71E+06      0.829     0.0034      5.669      0.4003291200200785 
 1.6982E+07   1.77E+06      0.827     0.0035      5.761      0.4133291200200786 
 1.7378E+07   1.83E+06      0.833     0.0035      5.547      0.4143291200200787 
 1.7783E+07   1.89E+06      0.826     0.0036      5.780      0.4213291200200788 
 1.8197E+07   1.96E+06      0.823     0.0036      5.903      0.4313291200200789 
 1.8621E+07   2.03E+06      0.832     0.0036      5.583      0.4323291200200790 
 1.9055E+07   2.10E+06      0.825     0.0037      5.816      0.4453291200200791 
 1.9498E+07   2.18E+06      0.825     0.0037      5.825      0.4493291200200792 
 1.9953E+07   2.25E+06      0.828     0.0037      5.710      0.4533291200200793 
ENDDATA            779          0                                 3291200200794 
ENDSUBENT          793          0                                 3291200299999 
SUBENT        32912003   20240528                             32133291200300001 
BIB                  3          5                                 3291200300002 
REACTION  1(82-PB-0(N,TOT),,TRN)                                  3291200300003 
          2(82-PB-0(N,TOT),,SIG)                                  3291200300004 
COMMENT    The transmission spectra corresponding to the fission  3291200300005 
           events of 238U                                         3291200300006 
STATUS     (COREL,32912002) measured with 235U fission chamber    3291200300007 
ENDBIB               5          0                                 3291200300008 
COMMON               1          3                                 3291200300009 
THICKNESS 1                                                       3291200300010 
ATOMS/B                                                           3291200300011 
 3.3517E-02                                                       3291200300012 
ENDCOMMON            3          0                                 3291200300013 
DATA                 6         89                                 3291200300014 
EN         EN-RSL     DATA      1DATA-ERR  1DATA      2DATA-ERR  23291200300015 
EV         EV         NO-DIM     NO-DIM     B          B          3291200300016 
 1.1639E+06   3.13E+04      0.850     0.0098      4.916      0.5953291200300017 
 1.2018E+06   3.28E+04      0.844     0.0086      5.153      0.5683291200300018 
 1.2409E+06   3.44E+04      0.836     0.0077      5.431      0.5253291200300019 
 1.2813E+06   3.61E+04      0.852     0.0068      4.840      0.4503291200300020 
 1.3230E+06   3.79E+04      0.837     0.0057      5.380      0.3893291200300021 
 1.3660E+06   3.98E+04      0.835     0.0051      5.462      0.3663291200300022 
 1.4105E+06   4.17E+04      0.844     0.0045      5.131      0.2883291200300023 
 1.4563E+06   4.38E+04      0.834     0.0039      5.492      0.2803291200300024 
 1.5037E+06   4.60E+04      0.853     0.0038      4.815      0.2443291200300025 
 1.5527E+06   4.82E+04      0.860     0.0038      4.553      0.2663291200300026 
 1.6032E+06   5.06E+04      0.837     0.0036      5.404      0.2363291200300027 
 1.6553E+06   5.31E+04      0.811     0.0033      6.335      0.2563291200300028 
 1.7092E+06   5.57E+04      0.811     0.0033      6.362      0.2303291200300029 
 1.7648E+06   5.84E+04      0.817     0.0032      6.113      0.2253291200300030 
 1.8222E+06   6.13E+04      0.824     0.0032      5.853      0.2493291200300031 
 1.8815E+06   6.43E+04      0.815     0.0032      6.187      0.2273291200300032 
 1.9428E+06   6.75E+04      0.811     0.0031      6.345      0.2293291200300033 
 2.0060E+06   7.08E+04      0.802     0.0032      6.694      0.2343291200300034 
 2.0712E+06   7.43E+04      0.800     0.0032      6.773      0.2373291200300035 
 2.1386E+06   7.80E+04      0.795     0.0032      6.938      0.2423291200300036 
 2.2082E+06   8.18E+04      0.797     0.0032      6.854      0.2443291200300037 
 2.2801E+06   8.58E+04      0.783     0.0032      7.411      0.2503291200300038 
 2.3543E+06   9.01E+04      0.783     0.0032      7.424      0.2523291200300039 
 2.4309E+06   9.45E+04      0.788     0.0033      7.232      0.2223291200300040 
 2.5099E+06   9.92E+04      0.791     0.0033      7.101      0.2573291200300041 
 2.5916E+06   1.04E+05      0.785     0.0032      7.320      0.2553291200300042 
 2.6759E+06   1.09E+05      0.785     0.0032      7.326      0.2543291200300043 
 2.7630E+06   1.15E+05      0.788     0.0032      7.204      0.2213291200300044 
 2.8529E+06   1.20E+05      0.777     0.0032      7.626      0.2573291200300045 
 2.9457E+06   1.26E+05      0.774     0.0032      7.765      0.2253291200300046 
 3.0416E+06   1.32E+05      0.772     0.0032      7.852      0.2623291200300047 
 3.1406E+06   1.39E+05      0.764     0.0032      8.149      0.2323291200300048 
 3.2427E+06   1.46E+05      0.769     0.0033      7.968      0.2723291200300049 
 3.3482E+06   1.53E+05      0.773     0.0034      7.795      0.2403291200300050 
 3.4572E+06   1.60E+05      0.765     0.0033      8.126      0.2453291200300051 
 3.5697E+06   1.68E+05      0.773     0.0034      7.814      0.2883291200300052 
 3.6858E+06   1.77E+05      0.772     0.0035      7.827      0.2533291200300053 
 3.8058E+06   1.85E+05      0.766     0.0035      8.063      0.2563291200300054 
 3.9296E+06   1.94E+05      0.770     0.0035      7.916      0.2573291200300055 
 4.0575E+06   2.04E+05      0.770     0.0035      7.900      0.2583291200300056 
 4.1895E+06   2.14E+05      0.777     0.0035      7.628      0.2973291200300057 
 4.3258E+06   2.25E+05      0.773     0.0034      7.797      0.2553291200300058 
 4.4665E+06   2.36E+05      0.781     0.0034      7.473      0.2503291200300059 
 4.6119E+06   2.47E+05      0.786     0.0034      7.303      0.2493291200300060 
 4.7619E+06   2.60E+05      0.779     0.0033      7.549      0.2493291200300061 
 4.9169E+06   2.72E+05      0.787     0.0034      7.253      0.2503291200300062 
 5.0769E+06   2.86E+05      0.796     0.0034      6.912      0.2523291200300063 
 5.2420E+06   3.00E+05      0.794     0.0034      6.971      0.2533291200300064 
 5.4126E+06   3.15E+05      0.800     0.0034      6.770      0.2043291200300065 
 5.5887E+06   3.30E+05      0.805     0.0035      6.554      0.2573291200300066 
 5.7706E+06   3.47E+05      0.806     0.0035      6.517      0.2583291200300067 
 5.9583E+06   3.64E+05      0.813     0.0034      6.272      0.2563291200300068 
 6.1522E+06   3.82E+05      0.821     0.0034      5.978      0.2523291200300069 
 6.3524E+06   4.01E+05      0.812     0.0032      6.316      0.1963291200300070 
 6.5591E+06   4.20E+05      0.820     0.0032      6.010      0.2423291200300071 
 6.7725E+06   4.41E+05      0.816     0.0031      6.162      0.2413291200300072 
 6.9928E+06   4.63E+05      0.822     0.0031      5.952      0.1913291200300073 
 7.2204E+06   4.86E+05      0.818     0.0031      6.096      0.2433291200300074 
 7.4553E+06   5.10E+05      0.828     0.0032      5.726      0.1953291200300075 
 7.6979E+06   5.35E+05      0.831     0.0033      5.614      0.2523291200300076 
 7.9484E+06   5.61E+05      0.829     0.0033      5.682      0.2573291200300077 
 8.2070E+06   5.89E+05      0.831     0.0034      5.592      0.2053291200300078 
 8.4740E+06   6.18E+05      0.843     0.0035      5.180      0.2663291200300079 
 8.7497E+06   6.49E+05      0.852     0.0035      4.844      0.2123291200300080 
 9.0344E+06   6.81E+05      0.841     0.0035      5.258      0.2153291200300081 
 9.3284E+06   7.14E+05      0.845     0.0036      5.086      0.2813291200300082 
 9.6319E+06   7.50E+05      0.845     0.0036      5.089      0.2253291200300083 
 9.9453E+06   7.87E+05      0.839     0.0037      5.324      0.2973291200300084 
 1.0269E+07   8.26E+05      0.843     0.0037      5.162      0.2373291200300085 
 1.0603E+07   8.67E+05      0.844     0.0038      5.123      0.2433291200300086 
 1.0948E+07   9.10E+05      0.837     0.0038      5.386      0.3213291200300087 
 1.1304E+07   9.55E+05      0.843     0.0039      5.175      0.2523291200300088 
 1.1672E+07   1.00E+06      0.845     0.0040      5.117      0.2563291200300089 
 1.2052E+07   1.05E+06      0.841     0.0040      5.250      0.2623291200300090 
 1.2444E+07   1.10E+06      0.849     0.0041      4.947      0.3453291200300091 
 1.2849E+07   1.16E+06      0.859     0.0042      4.616      0.2693291200300092 
 1.3267E+07   1.22E+06      0.858     0.0042      4.628      0.2703291200300093 
 1.3699E+07   1.28E+06      0.833     0.0040      5.551      0.2693291200300094 
 1.4144E+07   1.34E+06      0.822     0.0039      5.952      0.2673291200300095 
 1.4605E+07   1.41E+06      0.823     0.0039      5.884      0.2693291200300096 
 1.5080E+07   1.48E+06      0.843     0.0040      5.186      0.3553291200300097 
 1.5570E+07   1.55E+06      0.845     0.0040      5.115      0.2753291200300098 
 1.6077E+07   1.63E+06      0.840     0.0040      5.274      0.2773291200300099 
 1.6600E+07   1.71E+06      0.842     0.0041      5.216      0.2823291200300100 
 1.7140E+07   1.79E+06      0.846     0.0041      5.077      0.2853291200300101 
 1.7698E+07   1.88E+06      0.835     0.0041      5.456      0.2883291200300102 
 1.8274E+07   1.97E+06      0.834     0.0041      5.513      0.2933291200300103 
 1.8868E+07   2.07E+06      0.844     0.0042      5.137      0.2943291200300104 
 1.9482E+07   2.17E+06      0.842     0.0042      5.194      0.2973291200300105 
ENDDATA             91          0                                 3291200300106 
ENDSUBENT          105          0                                 3291200399999 
ENDENTRY             3          0                                 3291299999999 
