ENTRY            41518   20141220                             41664151800000001 
SUBENT        41518001   20141220                             41664151800100001 
BIB                 14         65                                 4151800100002 
TITLE       Preliminary results of the neutron total cross section4151800100003 
            measurements of Pb-nat in the MeV energy range.       4151800100004 
AUTHOR     (A.B.Laptev, I.L.Karpikhin, P.A.Krupchitsky,           4151800100005 
           O.A.Shcherbakov, A.S.Vorobyev)                         4151800100006 
INSTITUTE  (4RUSLIN)  A.Laptev, G.Petrov, O.Shcherbakov, I.Guseva,4151800100007 
                      A.Vorobyev.                                 4151800100008 
           (4RUSITE)  I.Karpikhin, P.Krupchitsky .                4151800100009 
REFERENCE  (T,Laptev,2004) Main reference. Final data.            4151800100010 
           ((S,ISINN-10,92,200305)=(S,JINR-E3-2003,92,2003))      4151800100011 
            ISINN-10 ( 2002 year) Proceedings.                    4151800100012 
REL-REF    (N,,O.A.Shcherbakov+,S,JINR-E3-2001-192,257,2001)      4151800100013 
           (N,,O.A.Shcherbakov+,S,JINR-E3-2001-192,326,2001)      4151800100014 
            = ISINN-9 Proc.  Details of exp. setup.               4151800100015 
FACILITY   (SYNCY,4RUSLIN)   Time-of-flight spectrometer 'GNEIS', 4151800100016 
                           beam #5. PNPI synchrocyclotron.        4151800100017 
            Data acquisition system based on 100-MHz FLASH-ADC.   4151800100018 
INC-SOURCE (SPALL) 1 GeV proton beam. Water-cooled lead target    4151800100019 
            inside the vacuum chamber of accelerator as pulsed    4151800100020 
            spallation neutron source of average neutron intensity4151800100021 
            3.E+14 n/sec , burst duration 10 nsec, repetition rate4151800100022 
            up to 50 Hz. System of iron, brass, lead collimators  4151800100023 
            gives beam diameter of 18 cm at neutron detector      4151800100024 
            location.                                             4151800100025 
            Clearing magnet to remove charged particles from      4151800100026 
            neutron beam.                                         4151800100027 
INC-SPECT   Neutron flux and energy resolution are shown in       4151800100028 
            Fig.2,3 of reference.                                 4151800100029 
METHOD     (TOF)   48.5 m flight path.                            4151800100030 
           (TRN) Transmission method.                             4151800100031 
            TOF vs neutron energy calibration with accuracy       4151800100032 
            (0.025-0.1)% was made for every detector foil using   4151800100033 
            relativistic formulae and position of lead total      4151800100034 
            cross-section resonances. Total cross-sections for    4151800100035 
            each plate of ionization chamber were averaged to     4151800100036 
            obtain final.                                         4151800100037 
           (ACTIV) Analysis of admixtures in Pb-nat sample was    4151800100038 
           made in neutron-activation analysis facility REGATA of 4151800100039 
           Frank Lab. of Neutron Physics, JINR.                   4151800100040 
DETECTOR   (IOCH) As neutron detector -fast parallel plate fission4151800100041 
           ionization chambers filled with methane (94-100%) and  4151800100042 
           CF4 (6-0%) mixture working gas at absolute pressure    4151800100043 
           2.5-3.5 atm. 1-st chamber of 6 sections. All fission   4151800100044 
           foils of 180 mm diameter, deposited on one side of     4151800100045 
           0.05-mm-thick Al backings. Actinide detector foils of  4151800100046 
           150-160 microg/cm**2 thickness. Foils were oriented    4151800100047 
           perpendicular to neutron beam.                         4151800100048 
SAMPLE      Pb-nat of thickness 0.1688 atom/barn, placed at       4151800100049 
            distance about 1.5 m before neutron detector.         4151800100050 
            Admixtures in Pb-nat sample (as weight ratios         4151800100051 
            multiplied by 10**-6, errors are in %):               4151800100052 
            Na - 120 +- 9.9%, Al - 10.3 +-63.%, Cl - 260. +-14.%, 4151800100053 
            Ca - 68.3 +-42.%, V - 0.127 +-23.%, Mn - 0.923 +-14.%,4151800100054 
            Ni - 4.69 +-22.%, Co - 0.0808 +-23.%, Zn -3.25 +-18.%,4151800100055 
            As - 0.0359 +-12.%, Br -0.0452 +-28.%, Sr -32.6+-6.9%,4151800100056 
            Rb - 0.395 +-25.%, Mo - 0.0929 +-14.%, Ag -1.44+-23.%,4151800100057 
            Cd - 0.0452+-28.%, In -0.356 +-15.%, Sb -0.0676+-21.%,4151800100058 
            Ba - 6.00+-24.%, La - 3.88 +-6.3%, Ce - 6.01+-15.%,   4151800100059 
            Sm - 0.346 +-5.6%, Gd -0.199+-27.%, Tb -0.0228+-13.%, 4151800100060 
            Tm - 0.0309+-13.%, W - 1.23+-6.3%, Au -0.153 +-1.1%,  4151800100061 
            Pa - 0.0737 +- 5.9%, Np - 0.0473 +-13.% .             4151800100062 
CORRECTION  For background - detailed description in 1-st REL-REF.4151800100063 
STATUS     (APRVD) Data from O.Shcherbakov 04.12.2008.            4151800100064 
           (TABLE)                                                4151800100065 
HISTORY    (20081204C)  M.M.                                      4151800100066 
           (20141220U) Second ref. was corrected.                 4151800100067 
ENDBIB              65          0                                 4151800100068 
NOCOMMON             0          0                                 4151800100069 
ENDSUBENT           68          0                                 4151800199999 
SUBENT        41518002   20081204                             41454151800200001 
BIB                  3          4                                 4151800200002 
REACTION   (82-PB-0(N,TOT),,SIG)                                  4151800200003 
ERR-ANALYS (DATA-ERR) Statistical errors about 2-3%.              4151800200004 
STATUS      Data presented in Fig.7 of reference in 0.5-200 MeV   4151800200005 
                En range.                                         4151800200006 
ENDBIB               4          0                                 4151800200007 
NOCOMMON             0          0                                 4151800200008 
DATA                 3        434                                 4151800200009 
EN         DATA       DATA-ERR                                    4151800200010 
MEV        B          B                                           4151800200011 
0.566       5.59        0.24                                      4151800200012 
0.568       5.75        0.24                                      4151800200013 
0.571       5.76        0.24                                      4151800200014 
0.573       5.59        0.24                                      4151800200015 
0.576       5.60        0.23                                      4151800200016 
0.578       5.60        0.23                                      4151800200017 
0.581       5.36        0.22                                      4151800200018 
0.583       5.33        0.22                                      4151800200019 
0.586       5.38        0.22                                      4151800200020 
0.589       5.46        0.21                                      4151800200021 
0.591       5.34        0.21                                      4151800200022 
0.594       5.22        0.21                                      4151800200023 
0.597       5.20        0.21                                      4151800200024 
0.599       5.31        0.21                                      4151800200025 
0.602       5.26        0.21                                      4151800200026 
0.605       5.60        0.21                                      4151800200027 
0.607       5.52        0.21                                      4151800200028 
0.610       5.75        0.21                                      4151800200029 
0.613       5.63        0.21                                      4151800200030 
0.616       5.48        0.21                                      4151800200031 
0.618       5.53        0.21                                      4151800200032 
0.621       5.45463     0.20789                                   4151800200033 
0.62407     5.3729      0.20844                                   4151800200034 
0.62692     5.27364     0.21081                                   4151800200035 
0.62979     5.50844     0.21894                                   4151800200036 
0.63269     5.74324     0.22562                                   4151800200037 
0.6356      5.69688     0.22179                                   4151800200038 
0.63853     5.48052     0.21667                                   4151800200039 
0.64148     5.39114     0.21172                                   4151800200040 
0.64446     5.38965     0.214                                     4151800200041 
0.64745     5.58555     0.21982                                   4151800200042 
0.65046     5.37072     0.21457                                   4151800200043 
0.6535      5.42334     0.20968                                   4151800200044 
0.65656     5.34602     0.20613                                   4151800200045 
0.65963     5.26123     0.20131                                   4151800200046 
0.66274     5.35201     0.2033                                    4151800200047 
0.66586     5.12548     0.19686                                   4151800200048 
0.669       5.15323     0.19236                                   4151800200049 
0.67217     5.03723     0.18941                                   4151800200050 
0.67536     4.88518     0.1868                                    4151800200051 
0.67857     5.03454     0.18624                                   4151800200052 
0.6818      5.02848     0.18414                                   4151800200053 
0.68506     5.26375     0.18793                                   4151800200054 
0.68834     5.29117     0.18877                                   4151800200055 
0.69165     5.201       0.18801                                   4151800200056 
0.69498     5.53019     0.19317                                   4151800200057 
0.69833     5.85815     0.1939                                    4151800200058 
0.70171     5.43049     0.18676                                   4151800200059 
0.70511     5.40209     0.18809                                   4151800200060 
0.70854     5.03317     0.18481                                   4151800200061 
0.71199     5.44202     0.18881                                   4151800200062 
0.71546     5.35034     0.19846                                   4151800200063 
0.71897     5.91907     0.21442                                   4151800200064 
0.7225      5.97989     0.222                                     4151800200065 
0.72605     5.99056     0.21257                                   4151800200066 
0.72963     5.50371     0.19823                                   4151800200067 
0.73324     5.17696     0.19146                                   4151800200068 
0.73687     5.09491     0.1844                                    4151800200069 
0.74053     5.33555     0.18154                                   4151800200070 
0.74422     5.00393     0.17939                                   4151800200071 
0.74794     4.84147     0.18011                                   4151800200072 
0.75168     5.01795     0.18239                                   4151800200073 
0.75545     5.03975     0.18226                                   4151800200074 
0.75926     5.10374     0.1808                                    4151800200075 
0.76309     4.95337     0.18282                                   4151800200076 
0.76694     5.31071     0.18573                                   4151800200077 
0.77083     5.2217      0.18342                                   4151800200078 
0.77475     5.0128      0.179                                     4151800200079 
0.7787      4.93327     0.18052                                   4151800200080 
0.78268     4.87953     0.18358                                   4151800200081 
0.78668     5.11696     0.18699                                   4151800200082 
0.79072     5.03719     0.18324                                   4151800200083 
0.79479     4.9182      0.17825                                   4151800200084 
0.7989      5.2656      0.17647                                   4151800200085 
0.80303     4.96362     0.17593                                   4151800200086 
0.8072      5.239       0.18477                                   4151800200087 
0.81139     5.63667     0.2011                                    4151800200088 
0.81563     6.51565     0.21712                                   4151800200089 
0.81989     6.43237     0.21763                                   4151800200090 
0.82419     6.23889     0.20308                                   4151800200091 
0.82852     5.48881     0.18689                                   4151800200092 
0.83289     5.55365     0.17982                                   4151800200093 
0.83729     5.37407     0.17586                                   4151800200094 
0.84172     5.29949     0.17657                                   4151800200095 
0.8462      5.46593     0.18432                                   4151800200096 
0.8507      5.6715      0.18895                                   4151800200097 
0.85525     5.81879     0.18781                                   4151800200098 
0.85983     5.4896      0.17913                                   4151800200099 
0.86444     5.28991     0.17251                                   4151800200100 
0.8691      5.00997     0.16533                                   4151800200101 
0.87379     5.03147     0.1634                                    4151800200102 
0.87852     5.09236     0.16036                                   4151800200103 
0.88329     4.9873      0.15641                                   4151800200104 
0.88809     5.07939     0.15296                                   4151800200105 
0.89294     4.7358      0.14876                                   4151800200106 
0.89783     4.65373     0.14714                                   4151800200107 
0.90275     4.57648     0.14496                                   4151800200108 
0.90772     4.67496     0.1439                                    4151800200109 
0.91273     5.08641     0.14519                                   4151800200110 
0.91778     5.1233      0.14544                                   4151800200111 
0.92287     4.85117     0.14327                                   4151800200112 
0.92801     4.62793     0.14176                                   4151800200113 
0.93318     4.57693     0.14049                                   4151800200114 
0.93841     4.70892     0.14287                                   4151800200115 
0.94367     4.96511     0.14769                                   4151800200116 
0.94898     5.14201     0.15208                                   4151800200117 
0.95433     4.96681     0.14943                                   4151800200118 
0.95973     5.23308     0.14855                                   4151800200119 
0.96518     4.91601     0.14439                                   4151800200120 
0.97067     4.6607      0.14436                                   4151800200121 
0.97621     4.88901     0.14667                                   4151800200122 
0.9818      5.23891     0.14964                                   4151800200123 
0.98743     5.21021     0.1491                                    4151800200124 
0.99312     5.02835     0.14587                                   4151800200125 
0.99885     4.87546     0.14221                                   4151800200126 
1.00463     4.7218      0.13993                                   4151800200127 
1.01047     4.88174     0.14095                                   4151800200128 
1.01635     4.97523     0.14269                                   4151800200129 
1.02229     5.06451     0.14335                                   4151800200130 
1.02828     5.18805     0.14618                                   4151800200131 
1.03432     4.8531      0.14256                                   4151800200132 
1.04041     4.88785     0.14086                                   4151800200133 
1.04656     4.79454     0.14072                                   4151800200134 
1.05276     4.8718      0.1387                                    4151800200135 
1.05902     4.85672     0.13482                                   4151800200136 
1.06534     4.5874      0.12892                                   4151800200137 
1.07171     4.62593     0.12573                                   4151800200138 
1.07813     4.57352     0.12393                                   4151800200139 
1.08462     4.63277     0.12437                                   4151800200140 
1.09117     4.8137      0.12629                                   4151800200141 
1.09777     4.74279     0.12661                                   4151800200142 
1.10444     4.79327     0.13079                                   4151800200143 
1.11116     5.07477     0.13564                                   4151800200144 
1.11795     4.95894     0.138                                     4151800200145 
1.1248      5.19754     0.1383                                    4151800200146 
1.13171     5.09264     0.13533                                   4151800200147 
1.13869     4.88106     0.13379                                   4151800200148 
1.14573     4.98794     0.13506                                   4151800200149 
1.15284     5.04623     0.13534                                   4151800200150 
1.16001     4.98101     0.13449                                   4151800200151 
1.16725     4.88573     0.13058                                   4151800200152 
1.17456     4.81415     0.12975                                   4151800200153 
1.18194     4.72941     0.12747                                   4151800200154 
1.18939     4.92491     0.12572                                   4151800200155 
1.19691     4.72837     0.12094                                   4151800200156 
1.2045      4.62816     0.1192                                    4151800200157 
1.21216     4.68716     0.11988                                   4151800200158 
1.21989     4.91426     0.1224                                    4151800200159 
1.2277      5.05331     0.12802                                   4151800200160 
1.23559     5.35709     0.1294                                    4151800200161 
1.24355     5.30937     0.12892                                   4151800200162 
1.25159     5.41825     0.12612                                   4151800200163 
1.25971     4.90616     0.12403                                   4151800200164 
1.2679      4.95438     0.12417                                   4151800200165 
1.27618     5.2084      0.12552                                   4151800200166 
1.28454     5.14637     0.12466                                   4151800200167 
1.29298     5.2971      0.12362                                   4151800200168 
1.3015      4.98047     0.12022                                   4151800200169 
1.31011     4.69943     0.11762                                   4151800200170 
1.31881     4.84741     0.11698                                   4151800200171 
1.32759     4.87122     0.11611                                   4151800200172 
1.33646     4.75419     0.11652                                   4151800200173 
1.34542     4.86062     0.11612                                   4151800200174 
1.35447     4.82904     0.11514                                   4151800200175 
1.36361     4.7213      0.11446                                   4151800200176 
1.37284     5.10314     0.11818                                   4151800200177 
1.38217     5.34696     0.12266                                   4151800200178 
1.39159     5.14943     0.12102                                   4151800200179 
1.40111     5.17838     0.11987                                   4151800200180 
1.41073     5.06067     0.11826                                   4151800200181 
1.42045     5.11204     0.1168                                    4151800200182 
1.43027     4.99849     0.11555                                   4151800200183 
1.44019     4.97603     0.11518                                   4151800200184 
1.45021     4.97555     0.11596                                   4151800200185 
1.46034     5.19392     0.11608                                   4151800200186 
1.47058     5.18752     0.11686                                   4151800200187 
1.48092     5.15472     0.11468                                   4151800200188 
1.49138     4.94337     0.11036                                   4151800200189 
1.50194     4.9863      0.10885                                   4151800200190 
1.51262     5.04621     0.10926                                   4151800200191 
1.52341     5.03153     0.10873                                   4151800200192 
1.53432     5.06092     0.10872                                   4151800200193 
1.54534     4.92908     0.10713                                   4151800200194 
1.55649     4.868       0.10675                                   4151800200195 
1.56776     4.90495     0.10461                                   4151800200196 
1.57914     4.88243     0.10413                                   4151800200197 
1.59066     4.962       0.10528                                   4151800200198 
1.6023      5.02652     0.10675                                   4151800200199 
1.61407     5.01254     0.10584                                   4151800200200 
1.62597     5.06316     0.10364                                   4151800200201 
1.638       4.99928     0.10342                                   4151800200202 
1.65016     5.35908     0.10752                                   4151800200203 
1.66246     5.64048     0.11169                                   4151800200204 
1.6749      5.78321     0.11419                                   4151800200205 
1.68748     5.61942     0.11328                                   4151800200206 
1.70021     5.78753     0.11454                                   4151800200207 
1.71307     5.87848     0.11506                                   4151800200208 
1.72609     5.97741     0.11779                                   4151800200209 
1.73925     5.81685     0.11715                                   4151800200210 
1.75256     5.72494     0.11373                                   4151800200211 
1.76603     5.46571     0.10768                                   4151800200212 
1.77965     5.32457     0.10439                                   4151800200213 
1.79344     5.34012     0.10213                                   4151800200214 
1.80738     5.19389     0.1004                                    4151800200215 
1.82148     5.20623     0.09968                                   4151800200216 
1.83576     5.10013     0.09794                                   4151800200217 
1.8502      5.04623     0.09664                                   4151800200218 
1.86481     5.02635     0.09758                                   4151800200219 
1.87959     5.19233     0.09921                                   4151800200220 
1.89456     5.40002     0.10181                                   4151800200221 
1.9097      5.41865     0.10523                                   4151800200222 
1.92502     5.4842      0.10643                                   4151800200223 
1.94053     5.42853     0.10596                                   4151800200224 
1.95623     5.43202     0.10365                                   4151800200225 
1.97212     5.43878     0.10247                                   4151800200226 
1.98821     5.46386     0.101                                     4151800200227 
2.00449     5.55364     0.10313                                   4151800200228 
2.02097     5.58661     0.10519                                   4151800200229 
2.03766     5.77445     0.10779                                   4151800200230 
2.05455     6.01641     0.10911                                   4151800200231 
2.07166     5.86077     0.10779                                   4151800200232 
2.08898     5.86725     0.10593                                   4151800200233 
2.10652     5.8138      0.10516                                   4151800200234 
2.12428     5.7818      0.10494                                   4151800200235 
2.14227     5.80863     0.10527                                   4151800200236 
2.16049     5.80977     0.10592                                   4151800200237 
2.17894     5.91886     0.10694                                   4151800200238 
2.19763     5.80151     0.10603                                   4151800200239 
2.21656     5.88187     0.10507                                   4151800200240 
2.23574     5.82552     0.10475                                   4151800200241 
2.25516     6.11161     0.10635                                   4151800200242 
2.27484     6.3029      0.10864                                   4151800200243 
2.29478     6.39824     0.11104                                   4151800200244 
2.31499     6.32866     0.11115                                   4151800200245 
2.33546     6.3191      0.10902                                   4151800200246 
2.35621     6.19295     0.10679                                   4151800200247 
2.37723     6.34346     0.10793                                   4151800200248 
2.39854     6.27822     0.10712                                   4151800200249 
2.42013     6.13952     0.10628                                   4151800200250 
2.44202     6.18023     0.10565                                   4151800200251 
2.4642      6.22702     0.10616                                   4151800200252 
2.4867      6.12806     0.10699                                   4151800200253 
2.5095      6.21823     0.10983                                   4151800200254 
2.53261     6.16977     0.10965                                   4151800200255 
2.55605     6.09589     0.10849                                   4151800200256 
2.57981     6.25579     0.10978                                   4151800200257 
2.60391     6.33288     0.11108                                   4151800200258 
2.62835     6.4483      0.11352                                   4151800200259 
2.65313     6.52262     0.11459                                   4151800200260 
2.67827     6.45336     0.1129                                    4151800200261 
2.70377     6.4558      0.11162                                   4151800200262 
2.72963     6.61687     0.11233                                   4151800200263 
2.75586     6.56691     0.11312                                   4151800200264 
2.78248     6.38227     0.11165                                   4151800200265 
2.80948     6.43984     0.11071                                   4151800200266 
2.83688     6.41219     0.10978                                   4151800200267 
2.86469     6.51204     0.11104                                   4151800200268 
2.8929      6.55992     0.11331                                   4151800200269 
2.92154     6.75098     0.11606                                   4151800200270 
2.9506      6.89389     0.1172                                    4151800200271 
2.9801      6.82015     0.11778                                   4151800200272 
3.01004     6.79577     0.1169                                    4151800200273 
3.04044     6.58114     0.11524                                   4151800200274 
3.0713      6.65822     0.11552                                   4151800200275 
3.10264     6.69811     0.1165                                    4151800200276 
3.13446     6.76851     0.11631                                   4151800200277 
3.16677     6.66203     0.11631                                   4151800200278 
3.19958     6.79388     0.1186                                    4151800200279 
3.23291     6.91373     0.1197                                    4151800200280 
3.26676     6.97675     0.12226                                   4151800200281 
3.30115     7.02456     0.12245                                   4151800200282 
3.33608     7.02616     0.12101                                   4151800200283 
3.37157     6.85098     0.11924                                   4151800200284 
3.40764     6.78916     0.1179                                    4151800200285 
3.44428     6.57446     0.11727                                   4151800200286 
3.48152     6.48907     0.11645                                   4151800200287 
3.51937     6.49668     0.11604                                   4151800200288 
3.55784     6.64731     0.11851                                   4151800200289 
3.59695     6.53778     0.11862                                   4151800200290 
3.63671     6.54863     0.11972                                   4151800200291 
3.67713     6.57528     0.11997                                   4151800200292 
3.71823     6.70969     0.12048                                   4151800200293 
3.76002     6.66501     0.12112                                   4151800200294 
3.80253     6.63546     0.12051                                   4151800200295 
3.84576     6.64843     0.12017                                   4151800200296 
3.88973     6.56099     0.11942                                   4151800200297 
3.93446     6.61078     0.11927                                   4151800200298 
3.97997     6.63864     0.12043                                   4151800200299 
4.02628     6.4785      0.11984                                   4151800200300 
4.0734      6.4928      0.1217                                    4151800200301 
4.12136     6.71593     0.12194                                   4151800200302 
4.17017     6.60174     0.12053                                   4151800200303 
4.21985     6.51255     0.12035                                   4151800200304 
4.27043     6.63329     0.121                                     4151800200305 
4.32193     6.66024     0.12152                                   4151800200306 
4.37436     6.73249     0.12173                                   4151800200307 
4.42776     6.57094     0.12158                                   4151800200308 
4.48214     6.58912     0.12092                                   4151800200309 
4.53754     6.57805     0.12138                                   4151800200310 
4.59397     6.38377     0.1208                                    4151800200311 
4.65146     6.46768     0.12029                                   4151800200312 
4.71004     6.58601     0.12161                                   4151800200313 
4.76974     6.65772     0.12249                                   4151800200314 
4.83058     6.48727     0.12209                                   4151800200315 
4.89259     6.33553     0.12097                                   4151800200316 
4.95582     6.26612     0.12087                                   4151800200317 
5.02028     6.21661     0.12135                                   4151800200318 
5.086       6.24938     0.12173                                   4151800200319 
5.15303     6.33875     0.12276                                   4151800200320 
5.2214      6.19203     0.1212                                    4151800200321 
5.29114     6.10626     0.12077                                   4151800200322 
5.3623      6.07322     0.1213                                    4151800200323 
5.4349      6.14035     0.12115                                   4151800200324 
5.50899     6.08603     0.12123                                   4151800200325 
5.58461     6.07888     0.11996                                   4151800200326 
5.66181     6.0523      0.11914                                   4151800200327 
5.74062     5.77194     0.11717                                   4151800200328 
5.82109     5.79667     0.11653                                   4151800200329 
5.90327     5.79669     0.11504                                   4151800200330 
5.98721     5.75716     0.11322                                   4151800200331 
6.07296     5.53385     0.11109                                   4151800200332 
6.16057     5.60232     0.10878                                   4151800200333 
6.2501      5.63981     0.10691                                   4151800200334 
6.34159     5.58162     0.10551                                   4151800200335 
6.43512     5.40563     0.103                                     4151800200336 
6.53075     5.38703     0.10073                                   4151800200337 
6.62852     5.43823     0.09953                                   4151800200338 
6.72852     5.42785     0.09776                                   4151800200339 
6.83081     5.30252     0.09665                                   4151800200340 
6.93545     5.2631      0.09594                                   4151800200341 
7.04253     5.18277     0.09457                                   4151800200342 
7.15211     5.1306      0.09259                                   4151800200343 
7.26428     5.28722     0.09254                                   4151800200344 
7.37913     5.26956     0.09254                                   4151800200345 
7.49673     5.15522     0.09193                                   4151800200346 
7.61717     5.03732     0.09131                                   4151800200347 
7.74056     5.03989     0.09073                                   4151800200348 
7.86697     4.89193     0.0901                                    4151800200349 
7.99653     4.87924     0.09008                                   4151800200350 
8.12932     4.94214     0.08985                                   4151800200351 
8.26547     4.91645     0.09005                                   4151800200352 
8.40508     4.93051     0.09079                                   4151800200353 
8.54827     5.04398     0.09073                                   4151800200354 
8.69517     5.0205      0.09109                                   4151800200355 
8.84591     4.86116     0.09051                                   4151800200356 
9.00062     4.91167     0.09104                                   4151800200357 
9.15944     4.77945     0.09134                                   4151800200358 
9.32253     4.67959     0.09143                                   4151800200359 
9.49004     4.78687     0.09194                                   4151800200360 
9.66212     4.71278     0.09251                                   4151800200361 
9.83896     4.67726     0.09267                                   4151800200362 
10.0207     4.63552     0.09331                                   4151800200363 
10.2076     4.77802     0.09401                                   4151800200364 
10.3998     4.74652     0.09502                                   4151800200365 
10.5974     4.60439     0.09545                                   4151800200366 
10.8009     4.73521     0.09611                                   4151800200367 
11.0102     4.78534     0.09712                                   4151800200368 
11.2257     4.70029     0.09756                                   4151800200369 
11.4477     4.63943     0.09825                                   4151800200370 
11.6764     4.72082     0.09893                                   4151800200371 
11.912      4.74825     0.09909                                   4151800200372 
12.1549     4.84969     0.09977                                   4151800200373 
12.4053     4.908       0.09959                                   4151800200374 
12.6636     4.80019     0.09921                                   4151800200375 
12.9301     4.8025      0.09818                                   4151800200376 
13.2052     4.93593     0.0981                                    4151800200377 
13.4892     4.93438     0.0976                                    4151800200378 
13.7826     4.78436     0.09674                                   4151800200379 
14.0856     4.86151     0.09648                                   4151800200380 
14.3989     5.02951     0.0964                                    4151800200381 
14.7228     5.00345     0.09556                                   4151800200382 
15.0579     4.97276     0.09513                                   4151800200383 
15.4047     4.9826      0.09507                                   4151800200384 
15.7636     5.06589     0.09569                                   4151800200385 
16.1354     5.01921     0.09538                                   4151800200386 
16.5205     5.05089     0.09486                                   4151800200387 
16.9198     5.09114     0.09525                                   4151800200388 
17.3339     5.16625     0.09538                                   4151800200389 
17.7635     5.20962     0.0958                                    4151800200390 
18.2094     5.24737     0.09618                                   4151800200391 
18.6725     5.24396     0.09584                                   4151800200392 
19.1536     5.07447     0.09483                                   4151800200393 
19.6538     5.11444     0.09451                                   4151800200394 
20.1741     5.12531     0.09328                                   4151800200395 
20.7155     5.09674     0.09268                                   4151800200396 
21.2793     5.22366     0.09211                                   4151800200397 
21.8667     5.07604     0.09084                                   4151800200398 
22.479      5.09462     0.08924                                   4151800200399 
23.1178     5.01201     0.0883                                    4151800200400 
23.7845     5.05661     0.08715                                   4151800200401 
24.4809     4.91788     0.08633                                   4151800200402 
25.2087     4.88723     0.08458                                   4151800200403 
25.9699     4.8972      0.08368                                   4151800200404 
26.7666     4.79605     0.0827                                    4151800200405 
27.6011     4.72793     0.08125                                   4151800200406 
28.4759     4.66538     0.08028                                   4151800200407 
29.3935     4.51069     0.07909                                   4151800200408 
30.357      4.494       0.07814                                   4151800200409 
31.3694     4.41966     0.07641                                   4151800200410 
32.4343     4.36707     0.07532                                   4151800200411 
33.5553     4.25515     0.07419                                   4151800200412 
34.7365     4.24057     0.07313                                   4151800200413 
35.9824     4.1545      0.07213                                   4151800200414 
37.2979     4.13592     0.07133                                   4151800200415 
38.6884     4.06309     0.06984                                   4151800200416 
40.1599     3.95915     0.06905                                   4151800200417 
41.7188     3.85303     0.06773                                   4151800200418 
43.3724     4.04122     0.06691                                   4151800200419 
45.1287     3.99698     0.06608                                   4151800200420 
46.9966     3.95564     0.06507                                   4151800200421 
48.986      3.81118     0.0642                                    4151800200422 
51.1079     3.90446     0.06358                                   4151800200423 
53.3748     3.90912     0.0626                                    4151800200424 
55.8004     3.83542     0.06204                                   4151800200425 
58.4005     3.92564     0.06128                                   4151800200426 
61.1927     3.99263     0.06084                                   4151800200427 
64.1969     4.04294     0.06004                                   4151800200428 
67.436      4.10058     0.05925                                   4151800200429 
70.936      4.06085     0.05842                                   4151800200430 
74.7268     4.0348      0.05778                                   4151800200431 
78.8428     4.01257     0.05688                                   4151800200432 
83.3237     3.98525     0.05616                                   4151800200433 
88.216      4.0278      0.05541                                   4151800200434 
93.574      3.84094     0.05426                                   4151800200435 
99.4617     3.75267     0.05332                                   4151800200436 
105.955     3.68525     0.05257                                   4151800200437 
113.144     3.57643     0.05194                                   4151800200438 
121.139     3.42716     0.05134                                   4151800200439 
130.071     3.28759     0.05077                                   4151800200440 
140.103     3.29188     0.05017                                   4151800200441 
151.438     3.07703     0.04976                                   4151800200442 
164.327     2.98854     0.04948                                   4151800200443 
179.093     2.86443     0.04929                                   4151800200444 
196.153     2.77255     0.04944                                   4151800200445 
ENDDATA            436          0                                 4151800200446 
ENDSUBENT          445          0                                 4151800299999 
ENDENTRY             2          0                                 4151899999999 
