ENTRY            10262   20011204                             13371026200000001 
SUBENT        10262001   20011204                             13371026200100001 
BIB                 14         28                                 1026200100002 
INSTITUTE  (1USAORL)                                              1026200100003 
REFERENCE  (J,PL/B,38,501,197204)                                 1026200100004 
AUTHOR     (H.Rosler,F.Plasil,H.W.Schmitt)                        1026200100005 
TITLE      High-resolution cross section measurement for          1026200100006 
            236U(n,f).                                            1026200100007 
FACILITY   (LINAC) Oak Ridge Electron Linear Accelerator          1026200100008 
INC-SOURCE (PHOTO)                                                1026200100009 
SAMPLE     0.5 mg/cm2 236U electroplated on both sides of         1026200100010 
            aluminum plates.                                      1026200100011 
METHOD     (TOF) Time-of-flight over 33-m flight path.            1026200100012 
DETECTOR   (FISCH)                                                1026200100013 
           (SCIN) plastic scintillator and ionization chamber used1026200100014 
                  to monitor neutron flux.                        1026200100015 
MONITOR    (92-U-235(N,F),,SIG) For flux monitor calibration.     1026200100016 
            Cross section normalized at 2 MeV.                    1026200100017 
CORRECTION Data corrected for dead-time, background effects, and  1026200100018 
            effects of aluminum contained in chamber or flux      1026200100019 
            monitors.                                             1026200100020 
ERR-ANALYS No information on uncertainties.                       1026200100021 
STATUS     No reply to author proff.                              1026200100022 
           Tabulated data received from H. Rosler, August 1975.   1026200100023 
HISTORY    (19750812C)                                            1026200100024 
           (19830613A) Converted to REACTION formalism            1026200100025 
           (20011204A) Converted to new date formats, lower case. 1026200100026 
           (20051018C) DR First value at 0.4916 MeV deleted       1026200100027 
                       because of its possible wrong value (of    1026200100028 
                       0.08421) compared to cross sections at     1026200100029 
                       0.4921 MeV and higher energies             1026200100030 
ENDBIB              28          0                                 1026200100031 
NOCOMMON             0          0                                 1026200100032 
ENDSUBENT           31          0                                 1026200199999 
SUBENT        10262002   20011204                             13371026200200001 
BIB                  1          1                                 1026200200002 
REACTION   (92-U-236(N,F),,SIG)                                   1026200200003 
ENDBIB               1          0                                 1026200200004 
COMMON               2          3                                 1026200200005 
EN-RSL     EN-NRM                                                 1026200200006 
KEV        MEV                                                    1026200200007 
 7.         2.                                                    1026200200008 
ENDCOMMON            3          0                                 1026200200009 
DATA                 2       1483                                 1026200200010 
EN         DATA                                                   1026200200011 
MEV        B                                                      1026200200012 
     0.4921    0.02074                                            1026200200013 
     0.4926    0.02023                                            1026200200014 
     0.4931    0.01880                                            1026200200015 
     0.4937    0.01386                                            1026200200016 
     0.4942    0.01531                                            1026200200017 
     0.4947    0.01882                                            1026200200018 
     0.4952    0.01786                                            1026200200019 
     0.4957    0.01715                                            1026200200020 
     0.4962    0.01768                                            1026200200021 
     0.4968    0.01762                                            1026200200022 
     0.4973    0.01887                                            1026200200023 
     0.4978    0.01952                                            1026200200024 
     0.4983    0.01536                                            1026200200025 
     0.4988    0.01322                                            1026200200026 
     0.4994    0.01436                                            1026200200027 
     0.4999    0.01983                                            1026200200028 
     0.5004    0.01784                                            1026200200029 
     0.5009    0.01563                                            1026200200030 
     0.5015    0.01523                                            1026200200031 
     0.5020    0.01667                                            1026200200032 
     0.5025    0.01986                                            1026200200033 
     0.5031    0.02186                                            1026200200034 
     0.5036    0.02240                                            1026200200035 
     0.5041    0.02117                                            1026200200036 
     0.5047    0.02067                                            1026200200037 
     0.5052    0.01685                                            1026200200038 
     0.5057    0.01675                                            1026200200039 
     0.5063    0.01414                                            1026200200040 
     0.5068    0.01438                                            1026200200041 
     0.5073    0.01474                                            1026200200042 
     0.5079    0.01447                                            1026200200043 
     0.5084    0.01290                                            1026200200044 
     0.5089    0.01636                                            1026200200045 
     0.5095    0.01605                                            1026200200046 
     0.5100    0.01690                                            1026200200047 
     0.5106    0.01876                                            1026200200048 
     0.5111    0.01818                                            1026200200049 
     0.5116    0.01682                                            1026200200050 
     0.5122    0.01770                                            1026200200051 
     0.5127    0.01413                                            1026200200052 
     0.5133    0.01267                                            1026200200053 
     0.5138    0.01006                                            1026200200054 
     0.5144    0.01172                                            1026200200055 
     0.5149    0.01688                                            1026200200056 
     0.5155    0.01579                                            1026200200057 
     0.5160    0.01402                                            1026200200058 
     0.5166    0.01627                                            1026200200059 
     0.5171    0.01633                                            1026200200060 
     0.5177    0.01619                                            1026200200061 
     0.5182    0.01796                                            1026200200062 
     0.5188    0.01721                                            1026200200063 
     0.5193    0.01559                                            1026200200064 
     0.5199    0.01488                                            1026200200065 
     0.5204    0.01374                                            1026200200066 
     0.5210    0.02074                                            1026200200067 
     0.5216    0.02891                                            1026200200068 
     0.5221    0.02683                                            1026200200069 
     0.5227    0.01871                                            1026200200070 
     0.5232    0.01893                                            1026200200071 
     0.5238    0.02113                                            1026200200072 
     0.5244    0.02013                                            1026200200073 
     0.5249    0.01919                                            1026200200074 
     0.5255    0.01866                                            1026200200075 
     0.5261    0.02117                                            1026200200076 
     0.5266    0.01814                                            1026200200077 
     0.5272    0.01751                                            1026200200078 
     0.5278    0.01963                                            1026200200079 
     0.5283    0.01720                                            1026200200080 
     0.5289    0.02269                                            1026200200081 
     0.5295    0.02021                                            1026200200082 
     0.5301    0.01723                                            1026200200083 
     0.5306    0.02103                                            1026200200084 
     0.5312    0.01669                                            1026200200085 
     0.5318    0.01769                                            1026200200086 
     0.5324    0.01593                                            1026200200087 
     0.5329    0.01346                                            1026200200088 
     0.5335    0.01542                                            1026200200089 
     0.5341    0.01298                                            1026200200090 
     0.5347    0.01254                                            1026200200091 
     0.5352    0.01316                                            1026200200092 
     0.5358    0.01303                                            1026200200093 
     0.5364    0.01461                                            1026200200094 
     0.5370    0.01943                                            1026200200095 
     0.5376    0.01714                                            1026200200096 
     0.5382    0.01506                                            1026200200097 
     0.5388    0.01696                                            1026200200098 
     0.5393    0.01721                                            1026200200099 
     0.5399    0.01857                                            1026200200100 
     0.5405    0.01758                                            1026200200101 
     0.5411    0.01614                                            1026200200102 
     0.5417    0.01524                                            1026200200103 
     0.5423    0.01684                                            1026200200104 
     0.5429    0.01773                                            1026200200105 
     0.5435    0.01674                                            1026200200106 
     0.5441    0.01448                                            1026200200107 
     0.5447    0.01938                                            1026200200108 
     0.5453    0.01978                                            1026200200109 
     0.5459    0.01882                                            1026200200110 
     0.5465    0.02206                                            1026200200111 
     0.5471    0.01903                                            1026200200112 
     0.5477    0.01486                                            1026200200113 
     0.5483    0.01413                                            1026200200114 
     0.5489    0.01496                                            1026200200115 
     0.5495    0.01876                                            1026200200116 
     0.5501    0.02066                                            1026200200117 
     0.5507    0.02096                                            1026200200118 
     0.5513    0.02105                                            1026200200119 
     0.5519    0.01779                                            1026200200120 
     0.5525    0.01875                                            1026200200121 
     0.5531    0.02158                                            1026200200122 
     0.5537    0.01998                                            1026200200123 
     0.5543    0.01802                                            1026200200124 
     0.5550    0.01718                                            1026200200125 
     0.5556    0.01773                                            1026200200126 
     0.5562    0.01867                                            1026200200127 
     0.5568    0.01822                                            1026200200128 
     0.5574    0.01826                                            1026200200129 
     0.5580    0.02178                                            1026200200130 
     0.5587    0.01988                                            1026200200131 
     0.5593    0.02140                                            1026200200132 
     0.5599    0.02027                                            1026200200133 
     0.5605    0.02051                                            1026200200134 
     0.5611    0.01818                                            1026200200135 
     0.5618    0.01427                                            1026200200136 
     0.5624    0.01556                                            1026200200137 
     0.5630    0.02350                                            1026200200138 
     0.5637    0.02032                                            1026200200139 
     0.5643    0.02075                                            1026200200140 
     0.5649    0.02366                                            1026200200141 
     0.5655    0.02410                                            1026200200142 
     0.5662    0.02339                                            1026200200143 
     0.5668    0.02391                                            1026200200144 
     0.5674    0.01916                                            1026200200145 
     0.5681    0.01568                                            1026200200146 
     0.5687    0.01678                                            1026200200147 
     0.5693    0.02002                                            1026200200148 
     0.5700    0.02020                                            1026200200149 
     0.5706    0.01659                                            1026200200150 
     0.5713    0.01729                                            1026200200151 
     0.5719    0.01837                                            1026200200152 
     0.5725    0.01820                                            1026200200153 
     0.5732    0.01761                                            1026200200154 
     0.5738    0.01879                                            1026200200155 
     0.5745    0.01777                                            1026200200156 
     0.5751    0.01918                                            1026200200157 
     0.5758    0.02091                                            1026200200158 
     0.5764    0.02095                                            1026200200159 
     0.5771    0.01833                                            1026200200160 
     0.5777    0.01691                                            1026200200161 
     0.5784    0.01697                                            1026200200162 
     0.5790    0.01834                                            1026200200163 
     0.5797    0.02195                                            1026200200164 
     0.5803    0.02462                                            1026200200165 
     0.5810    0.02114                                            1026200200166 
     0.5817    0.01920                                            1026200200167 
     0.5823    0.01911                                            1026200200168 
     0.5830    0.02003                                            1026200200169 
     0.5836    0.01927                                            1026200200170 
     0.5843    0.01800                                            1026200200171 
     0.5850    0.01786                                            1026200200172 
     0.5856    0.02354                                            1026200200173 
     0.5863    0.02635                                            1026200200174 
     0.5870    0.02315                                            1026200200175 
     0.5876    0.02065                                            1026200200176 
     0.5883    0.02118                                            1026200200177 
     0.5890    0.02024                                            1026200200178 
     0.5896    0.01954                                            1026200200179 
     0.5903    0.02065                                            1026200200180 
     0.5910    0.01961                                            1026200200181 
     0.5917    0.01885                                            1026200200182 
     0.5923    0.01869                                            1026200200183 
     0.5930    0.02219                                            1026200200184 
     0.5937    0.02427                                            1026200200185 
     0.5944    0.02476                                            1026200200186 
     0.5951    0.02855                                            1026200200187 
     0.5957    0.02793                                            1026200200188 
     0.5964    0.02618                                            1026200200189 
     0.5971    0.02210                                            1026200200190 
     0.5978    0.02125                                            1026200200191 
     0.5985    0.02457                                            1026200200192 
     0.5992    0.02318                                            1026200200193 
     0.5999    0.02097                                            1026200200194 
     0.6005    0.02101                                            1026200200195 
     0.6012    0.02575                                            1026200200196 
     0.6019    0.03233                                            1026200200197 
     0.6026    0.03029                                            1026200200198 
     0.6033    0.02339                                            1026200200199 
     0.6040    0.02030                                            1026200200200 
     0.6047    0.02325                                            1026200200201 
     0.6054    0.02274                                            1026200200202 
     0.6061    0.02608                                            1026200200203 
     0.6068    0.02511                                            1026200200204 
     0.6075    0.02799                                            1026200200205 
     0.6082    0.02546                                            1026200200206 
     0.6089    0.02550                                            1026200200207 
     0.6096    0.02896                                            1026200200208 
     0.6103    0.02407                                            1026200200209 
     0.6110    0.02427                                            1026200200210 
     0.6118    0.02529                                            1026200200211 
     0.6125    0.02309                                            1026200200212 
     0.6132    0.02137                                            1026200200213 
     0.6139    0.02278                                            1026200200214 
     0.6146    0.02022                                            1026200200215 
     0.6153    0.01951                                            1026200200216 
     0.6160    0.02077                                            1026200200217 
     0.6168    0.02532                                            1026200200218 
     0.6175    0.02695                                            1026200200219 
     0.6182    0.02484                                            1026200200220 
     0.6189    0.02656                                            1026200200221 
     0.6196    0.03135                                            1026200200222 
     0.6204    0.03082                                            1026200200223 
     0.6211    0.03406                                            1026200200224 
     0.6218    0.03718                                            1026200200225 
     0.6226    0.03213                                            1026200200226 
     0.6233    0.03110                                            1026200200227 
     0.6240    0.02824                                            1026200200228 
     0.6247    0.02461                                            1026200200229 
     0.6255    0.02405                                            1026200200230 
     0.6262    0.02321                                            1026200200231 
     0.6270    0.02503                                            1026200200232 
     0.6277    0.02600                                            1026200200233 
     0.6284    0.02836                                            1026200200234 
     0.6292    0.02912                                            1026200200235 
     0.6299    0.03321                                            1026200200236 
     0.6307    0.03532                                            1026200200237 
     0.6314    0.03189                                            1026200200238 
     0.6321    0.02708                                            1026200200239 
     0.6329    0.02584                                            1026200200240 
     0.6336    0.02728                                            1026200200241 
     0.6344    0.02813                                            1026200200242 
     0.6351    0.02671                                            1026200200243 
     0.6359    0.02431                                            1026200200244 
     0.6366    0.02705                                            1026200200245 
     0.6374    0.02776                                            1026200200246 
     0.6382    0.02600                                            1026200200247 
     0.6389    0.02542                                            1026200200248 
     0.6397    0.02498                                            1026200200249 
     0.6404    0.02574                                            1026200200250 
     0.6412    0.02485                                            1026200200251 
     0.6420    0.02352                                            1026200200252 
     0.6427    0.02767                                            1026200200253 
     0.6435    0.02759                                            1026200200254 
     0.6443    0.02655                                            1026200200255 
     0.6450    0.03060                                            1026200200256 
     0.6458    0.02912                                            1026200200257 
     0.6466    0.02729                                            1026200200258 
     0.6473    0.02992                                            1026200200259 
     0.6481    0.02535                                            1026200200260 
     0.6489    0.02313                                            1026200200261 
     0.6497    0.02775                                            1026200200262 
     0.6504    0.02676                                            1026200200263 
     0.6512    0.02384                                            1026200200264 
     0.6520    0.02476                                            1026200200265 
     0.6528    0.02853                                            1026200200266 
     0.6536    0.03190                                            1026200200267 
     0.6544    0.03390                                            1026200200268 
     0.6551    0.03343                                            1026200200269 
     0.6559    0.02984                                            1026200200270 
     0.6567    0.02813                                            1026200200271 
     0.6575    0.02979                                            1026200200272 
     0.6583    0.03513                                            1026200200273 
     0.6591    0.03679                                            1026200200274 
     0.6599    0.03611                                            1026200200275 
     0.6607    0.03795                                            1026200200276 
     0.6615    0.03975                                            1026200200277 
     0.6623    0.04019                                            1026200200278 
     0.6631    0.03588                                            1026200200279 
     0.6639    0.03344                                            1026200200280 
     0.6647    0.03470                                            1026200200281 
     0.6655    0.03674                                            1026200200282 
     0.6663    0.03277                                            1026200200283 
     0.6671    0.03292                                            1026200200284 
     0.6679    0.03205                                            1026200200285 
     0.6687    0.02980                                            1026200200286 
     0.6695    0.03219                                            1026200200287 
     0.6704    0.03311                                            1026200200288 
     0.6712    0.03386                                            1026200200289 
     0.6720    0.03619                                            1026200200290 
     0.6728    0.03351                                            1026200200291 
     0.6736    0.03581                                            1026200200292 
     0.6745    0.03821                                            1026200200293 
     0.6753    0.03942                                            1026200200294 
     0.6761    0.04068                                            1026200200295 
     0.6769    0.04185                                            1026200200296 
     0.6778    0.04282                                            1026200200297 
     0.6786    0.04379                                            1026200200298 
     0.6794    0.03895                                            1026200200299 
     0.6802    0.04420                                            1026200200300 
     0.6811    0.04091                                            1026200200301 
     0.6819    0.04648                                            1026200200302 
     0.6827    0.04091                                            1026200200303 
     0.6836    0.03719                                            1026200200304 
     0.6844    0.04058                                            1026200200305 
     0.6853    0.04343                                            1026200200306 
     0.6861    0.04771                                            1026200200307 
     0.6870    0.04583                                            1026200200308 
     0.6878    0.04653                                            1026200200309 
     0.6887    0.04896                                            1026200200310 
     0.6895    0.05325                                            1026200200311 
     0.6904    0.05146                                            1026200200312 
     0.6912    0.04629                                            1026200200313 
     0.6921    0.04644                                            1026200200314 
     0.6929    0.04589                                            1026200200315 
     0.6938    0.04810                                            1026200200316 
     0.6946    0.04713                                            1026200200317 
     0.6955    0.04587                                            1026200200318 
     0.6964    0.04599                                            1026200200319 
     0.6972    0.04295                                            1026200200320 
     0.6981    0.04370                                            1026200200321 
     0.6989    0.04090                                            1026200200322 
     0.6998    0.04721                                            1026200200323 
     0.7007    0.05091                                            1026200200324 
     0.7016    0.04957                                            1026200200325 
     0.7024    0.04938                                            1026200200326 
     0.7033    0.04842                                            1026200200327 
     0.7042    0.05486                                            1026200200328 
     0.7051    0.06038                                            1026200200329 
     0.7059    0.06450                                            1026200200330 
     0.7068    0.06862                                            1026200200331 
     0.7077    0.07120                                            1026200200332 
     0.7086    0.06243                                            1026200200333 
     0.7095    0.05635                                            1026200200334 
     0.7104    0.05680                                            1026200200335 
     0.7113    0.05668                                            1026200200336 
     0.7121    0.05769                                            1026200200337 
     0.7130    0.06311                                            1026200200338 
     0.7139    0.07026                                            1026200200339 
     0.7148    0.07228                                            1026200200340 
     0.7157    0.06520                                            1026200200341 
     0.7166    0.06048                                            1026200200342 
     0.7175    0.05880                                            1026200200343 
     0.7184    0.06336                                            1026200200344 
     0.7193    0.06590                                            1026200200345 
     0.7202    0.06849                                            1026200200346 
     0.7212    0.06820                                            1026200200347 
     0.7221    0.07192                                            1026200200348 
     0.7230    0.07526                                            1026200200349 
     0.7239    0.07163                                            1026200200350 
     0.7248    0.06691                                            1026200200351 
     0.7257    0.06944                                            1026200200352 
     0.7266    0.07738                                            1026200200353 
     0.7276    0.08051                                            1026200200354 
     0.7285    0.07961                                            1026200200355 
     0.7294    0.08200                                            1026200200356 
     0.7303    0.08386                                            1026200200357 
     0.7313    0.07853                                            1026200200358 
     0.7322    0.08013                                            1026200200359 
     0.7331    0.07651                                            1026200200360 
     0.7341    0.07097                                            1026200200361 
     0.7350    0.06769                                            1026200200362 
     0.7359    0.07294                                            1026200200363 
     0.7369    0.07816                                            1026200200364 
     0.7378    0.07951                                            1026200200365 
     0.7387    0.07957                                            1026200200366 
     0.7397    0.08615                                            1026200200367 
     0.7406    0.08990                                            1026200200368 
     0.7416    0.09088                                            1026200200369 
     0.7425    0.09463                                            1026200200370 
     0.7435    0.10257                                            1026200200371 
     0.7444    0.10598                                            1026200200372 
     0.7454    0.10877                                            1026200200373 
     0.7463    0.11184                                            1026200200374 
     0.7473    0.11010                                            1026200200375 
     0.7483    0.10181                                            1026200200376 
     0.7492    0.10046                                            1026200200377 
     0.7502    0.10617                                            1026200200378 
     0.7512    0.10756                                            1026200200379 
     0.7521    0.10706                                            1026200200380 
     0.7531    0.10538                                            1026200200381 
     0.7541    0.10402                                            1026200200382 
     0.7550    0.11077                                            1026200200383 
     0.7560    0.11533                                            1026200200384 
     0.7570    0.11859                                            1026200200385 
     0.7580    0.12143                                            1026200200386 
     0.7589    0.12302                                            1026200200387 
     0.7599    0.12789                                            1026200200388 
     0.7609    0.11434                                            1026200200389 
     0.7619    0.10278                                            1026200200390 
     0.7629    0.09633                                            1026200200391 
     0.7639    0.09447                                            1026200200392 
     0.7649    0.09545                                            1026200200393 
     0.7659    0.09703                                            1026200200394 
     0.7669    0.09430                                            1026200200395 
     0.7679    0.09307                                            1026200200396 
     0.7689    0.09321                                            1026200200397 
     0.7699    0.09657                                            1026200200398 
     0.7709    0.09845                                            1026200200399 
     0.7719    0.10206                                            1026200200400 
     0.7729    0.10563                                            1026200200401 
     0.7739    0.10593                                            1026200200402 
     0.7749    0.10304                                            1026200200403 
     0.7759    0.10150                                            1026200200404 
     0.7769    0.10045                                            1026200200405 
     0.7779    0.10098                                            1026200200406 
     0.7790    0.10837                                            1026200200407 
     0.7800    0.11716                                            1026200200408 
     0.7810    0.11774                                            1026200200409 
     0.7820    0.12217                                            1026200200410 
     0.7831    0.12665                                            1026200200411 
     0.7841    0.12812                                            1026200200412 
     0.7851    0.13690                                            1026200200413 
     0.7862    0.13581                                            1026200200414 
     0.7872    0.13708                                            1026200200415 
     0.7882    0.13786                                            1026200200416 
     0.7893    0.13706                                            1026200200417 
     0.7903    0.13586                                            1026200200418 
     0.7914    0.12666                                            1026200200419 
     0.7924    0.12715                                            1026200200420 
     0.7935    0.13412                                            1026200200421 
     0.7945    0.13395                                            1026200200422 
     0.7956    0.13573                                            1026200200423 
     0.7966    0.14480                                            1026200200424 
     0.7977    0.15699                                            1026200200425 
     0.7987    0.14912                                            1026200200426 
     0.7998    0.14589                                            1026200200427 
     0.8009    0.15890                                            1026200200428 
     0.8019    0.16423                                            1026200200429 
     0.8030    0.17245                                            1026200200430 
     0.8041    0.17640                                            1026200200431 
     0.8051    0.17681                                            1026200200432 
     0.8062    0.15824                                            1026200200433 
     0.8073    0.15641                                            1026200200434 
     0.8084    0.15876                                            1026200200435 
     0.8094    0.16610                                            1026200200436 
     0.8105    0.17696                                            1026200200437 
     0.8116    0.19129                                            1026200200438 
     0.8127    0.17911                                            1026200200439 
     0.8138    0.17273                                            1026200200440 
     0.8149    0.15620                                            1026200200441 
     0.8160    0.16471                                            1026200200442 
     0.8171    0.16500                                            1026200200443 
     0.8182    0.16771                                            1026200200444 
     0.8193    0.16816                                            1026200200445 
     0.8204    0.16931                                            1026200200446 
     0.8215    0.16661                                            1026200200447 
     0.8226    0.18042                                            1026200200448 
     0.8237    0.19283                                            1026200200449 
     0.8248    0.18451                                            1026200200450 
     0.8259    0.18225                                            1026200200451 
     0.8270    0.17506                                            1026200200452 
     0.8281    0.17929                                            1026200200453 
     0.8293    0.17809                                            1026200200454 
     0.8304    0.18421                                            1026200200455 
     0.8315    0.17665                                            1026200200456 
     0.8326    0.18651                                            1026200200457 
     0.8338    0.19570                                            1026200200458 
     0.8349    0.21039                                            1026200200459 
     0.8360    0.22128                                            1026200200460 
     0.8372    0.22244                                            1026200200461 
     0.8383    0.20895                                            1026200200462 
     0.8394    0.19807                                            1026200200463 
     0.8406    0.18505                                            1026200200464 
     0.8417    0.18716                                            1026200200465 
     0.8429    0.18567                                            1026200200466 
     0.8440    0.19078                                            1026200200467 
     0.8452    0.19980                                            1026200200468 
     0.8463    0.20779                                            1026200200469 
     0.8475    0.20608                                            1026200200470 
     0.8487    0.21248                                            1026200200471 
     0.8498    0.21055                                            1026200200472 
     0.8510    0.20691                                            1026200200473 
     0.8521    0.20526                                            1026200200474 
     0.8533    0.21536                                            1026200200475 
     0.8545    0.22404                                            1026200200476 
     0.8557    0.21942                                            1026200200477 
     0.8568    0.21155                                            1026200200478 
     0.8580    0.20718                                            1026200200479 
     0.8592    0.19531                                            1026200200480 
     0.8604    0.19839                                            1026200200481 
     0.8616    0.20218                                            1026200200482 
     0.8628    0.19903                                            1026200200483 
     0.8639    0.19922                                            1026200200484 
     0.8651    0.20092                                            1026200200485 
     0.8663    0.20351                                            1026200200486 
     0.8675    0.19982                                            1026200200487 
     0.8687    0.20697                                            1026200200488 
     0.8699    0.21555                                            1026200200489 
     0.8711    0.22363                                            1026200200490 
     0.8724    0.22399                                            1026200200491 
     0.8736    0.22578                                            1026200200492 
     0.8748    0.23123                                            1026200200493 
     0.8760    0.24199                                            1026200200494 
     0.8772    0.25804                                            1026200200495 
     0.8784    0.26533                                            1026200200496 
     0.8797    0.25909                                            1026200200497 
     0.8809    0.24785                                            1026200200498 
     0.8821    0.24109                                            1026200200499 
     0.8833    0.23301                                            1026200200500 
     0.8846    0.22484                                            1026200200501 
     0.8858    0.23599                                            1026200200502 
     0.8871    0.25156                                            1026200200503 
     0.8883    0.26051                                            1026200200504 
     0.8895    0.26988                                            1026200200505 
     0.8908    0.28092                                            1026200200506 
     0.8920    0.28590                                            1026200200507 
     0.8933    0.28516                                            1026200200508 
     0.8945    0.28377                                            1026200200509 
     0.8958    0.28887                                            1026200200510 
     0.8971    0.29372                                            1026200200511 
     0.8983    0.29062                                            1026200200512 
     0.8996    0.29084                                            1026200200513 
     0.9009    0.29881                                            1026200200514 
     0.9021    0.29335                                            1026200200515 
     0.9034    0.29202                                            1026200200516 
     0.9047    0.29475                                            1026200200517 
     0.9060    0.29417                                            1026200200518 
     0.9072    0.29725                                            1026200200519 
     0.9085    0.30042                                            1026200200520 
     0.9098    0.30790                                            1026200200521 
     0.9111    0.31877                                            1026200200522 
     0.9124    0.34183                                            1026200200523 
     0.9137    0.36265                                            1026200200524 
     0.9150    0.36463                                            1026200200525 
     0.9163    0.36492                                            1026200200526 
     0.9176    0.35970                                            1026200200527 
     0.9189    0.34690                                            1026200200528 
     0.9202    0.33896                                            1026200200529 
     0.9215    0.34796                                            1026200200530 
     0.9228    0.35031                                            1026200200531 
     0.9242    0.36467                                            1026200200532 
     0.9255    0.38386                                            1026200200533 
     0.9268    0.38280                                            1026200200534 
     0.9281    0.38133                                            1026200200535 
     0.9295    0.38983                                            1026200200536 
     0.9308    0.38510                                            1026200200537 
     0.9321    0.38252                                            1026200200538 
     0.9335    0.38895                                            1026200200539 
     0.9348    0.38758                                            1026200200540 
     0.9361    0.39126                                            1026200200541 
     0.9375    0.39796                                            1026200200542 
     0.9388    0.40050                                            1026200200543 
     0.9402    0.39938                                            1026200200544 
     0.9416    0.40248                                            1026200200545 
     0.9429    0.39516                                            1026200200546 
     0.9443    0.38047                                            1026200200547 
     0.9456    0.37801                                            1026200200548 
     0.9470    0.38594                                            1026200200549 
     0.9484    0.38939                                            1026200200550 
     0.9497    0.39227                                            1026200200551 
     0.9511    0.39649                                            1026200200552 
     0.9525    0.39994                                            1026200200553 
     0.9539    0.40049                                            1026200200554 
     0.9553    0.40146                                            1026200200555 
     0.9567    0.39705                                            1026200200556 
     0.9580    0.39872                                            1026200200557 
     0.9594    0.40217                                            1026200200558 
     0.9608    0.40139                                            1026200200559 
     0.9622    0.39319                                            1026200200560 
     0.9636    0.39162                                            1026200200561 
     0.9650    0.39707                                            1026200200562 
     0.9665    0.40543                                            1026200200563 
     0.9679    0.40240                                            1026200200564 
     0.9693    0.39821                                            1026200200565 
     0.9707    0.39586                                            1026200200566 
     0.9721    0.40050                                            1026200200567 
     0.9736    0.39142                                            1026200200568 
     0.9750    0.39790                                            1026200200569 
     0.9764    0.39046                                            1026200200570 
     0.9778    0.38000                                            1026200200571 
     0.9793    0.38950                                            1026200200572 
     0.9807    0.39957                                            1026200200573 
     0.9822    0.40562                                            1026200200574 
     0.9836    0.39630                                            1026200200575 
     0.9851    0.39637                                            1026200200576 
     0.9865    0.39574                                            1026200200577 
     0.9880    0.39386                                            1026200200578 
     0.9894    0.38070                                            1026200200579 
     0.9909    0.36304                                            1026200200580 
     0.9924    0.37470                                            1026200200581 
     0.9938    0.37804                                            1026200200582 
     0.9953    0.37445                                            1026200200583 
     0.9968    0.37161                                            1026200200584 
     0.9983    0.37694                                            1026200200585 
     0.9997    0.37958                                            1026200200586 
     1.0012    0.37247                                            1026200200587 
     1.0027    0.37910                                            1026200200588 
     1.0042    0.37519                                            1026200200589 
     1.0057    0.36427                                            1026200200590 
     1.0072    0.36476                                            1026200200591 
     1.0087    0.36378                                            1026200200592 
     1.0102    0.38153                                            1026200200593 
     1.0117    0.39040                                            1026200200594 
     1.0132    0.38804                                            1026200200595 
     1.0148    0.39310                                            1026200200596 
     1.0163    0.39213                                            1026200200597 
     1.0178    0.38216                                            1026200200598 
     1.0193    0.38448                                            1026200200599 
     1.0209    0.38003                                            1026200200600 
     1.0224    0.37639                                            1026200200601 
     1.0239    0.37423                                            1026200200602 
     1.0255    0.37610                                            1026200200603 
     1.0270    0.37491                                            1026200200604 
     1.0286    0.37029                                            1026200200605 
     1.0301    0.37792                                            1026200200606 
     1.0317    0.39086                                            1026200200607 
     1.0332    0.39099                                            1026200200608 
     1.0348    0.39434                                            1026200200609 
     1.0363    0.39033                                            1026200200610 
     1.0379    0.38250                                            1026200200611 
     1.0395    0.39891                                            1026200200612 
     1.0411    0.39009                                            1026200200613 
     1.0426    0.37744                                            1026200200614 
     1.0442    0.37673                                            1026200200615 
     1.0458    0.38253                                            1026200200616 
     1.0474    0.39615                                            1026200200617 
     1.0490    0.39068                                            1026200200618 
     1.0506    0.37969                                            1026200200619 
     1.0522    0.37998                                            1026200200620 
     1.0538    0.39622                                            1026200200621 
     1.0554    0.39927                                            1026200200622 
     1.0570    0.39984                                            1026200200623 
     1.0586    0.40904                                            1026200200624 
     1.0603    0.41366                                            1026200200625 
     1.0619    0.40678                                            1026200200626 
     1.0635    0.40142                                            1026200200627 
     1.0651    0.39440                                            1026200200628 
     1.0668    0.40382                                            1026200200629 
     1.0684    0.39449                                            1026200200630 
     1.0701    0.40093                                            1026200200631 
     1.0717    0.40791                                            1026200200632 
     1.0733    0.41040                                            1026200200633 
     1.0750    0.39458                                            1026200200634 
     1.0767    0.40758                                            1026200200635 
     1.0783    0.40368                                            1026200200636 
     1.0800    0.40288                                            1026200200637 
     1.0817    0.41640                                            1026200200638 
     1.0833    0.43949                                            1026200200639 
     1.0850    0.43766                                            1026200200640 
     1.0867    0.42221                                            1026200200641 
     1.0884    0.43267                                            1026200200642 
     1.0901    0.43302                                            1026200200643 
     1.0917    0.45444                                            1026200200644 
     1.0934    0.45803                                            1026200200645 
     1.0951    0.45736                                            1026200200646 
     1.0968    0.46423                                            1026200200647 
     1.0986    0.43586                                            1026200200648 
     1.1003    0.44584                                            1026200200649 
     1.1020    0.43276                                            1026200200650 
     1.1037    0.44519                                            1026200200651 
     1.1054    0.46384                                            1026200200652 
     1.1072    0.49074                                            1026200200653 
     1.1089    0.48988                                            1026200200654 
     1.1106    0.48984                                            1026200200655 
     1.1124    0.48535                                            1026200200656 
     1.1141    0.48281                                            1026200200657 
     1.1159    0.49373                                            1026200200658 
     1.1176    0.48508                                            1026200200659 
     1.1194    0.49854                                            1026200200660 
     1.1211    0.49286                                            1026200200661 
     1.1229    0.49584                                            1026200200662 
     1.1247    0.50722                                            1026200200663 
     1.1264    0.51215                                            1026200200664 
     1.1282    0.51044                                            1026200200665 
     1.1300    0.50637                                            1026200200666 
     1.1318    0.51305                                            1026200200667 
     1.1336    0.49610                                            1026200200668 
     1.1354    0.49618                                            1026200200669 
     1.1372    0.51342                                            1026200200670 
     1.1390    0.50763                                            1026200200671 
     1.1408    0.51894                                            1026200200672 
     1.1426    0.55495                                            1026200200673 
     1.1444    0.54823                                            1026200200674 
     1.1462    0.55348                                            1026200200675 
     1.1480    0.56458                                            1026200200676 
     1.1499    0.55943                                            1026200200677 
     1.1517    0.57224                                            1026200200678 
     1.1536    0.57014                                            1026200200679 
     1.1554    0.56524                                            1026200200680 
     1.1572    0.55498                                            1026200200681 
     1.1591    0.54634                                            1026200200682 
     1.1609    0.52739                                            1026200200683 
     1.1628    0.52014                                            1026200200684 
     1.1647    0.53693                                            1026200200685 
     1.1665    0.53737                                            1026200200686 
     1.1684    0.54219                                            1026200200687 
     1.1703    0.54331                                            1026200200688 
     1.1722    0.55194                                            1026200200689 
     1.1741    0.55515                                            1026200200690 
     1.1760    0.56062                                            1026200200691 
     1.1778    0.56903                                            1026200200692 
     1.1798    0.58119                                            1026200200693 
     1.1817    0.58003                                            1026200200694 
     1.1836    0.56439                                            1026200200695 
     1.1855    0.55025                                            1026200200696 
     1.1874    0.53149                                            1026200200697 
     1.1893    0.53410                                            1026200200698 
     1.1913    0.53337                                            1026200200699 
     1.1932    0.54515                                            1026200200700 
     1.1951    0.56897                                            1026200200701 
     1.1971    0.55804                                            1026200200702 
     1.1990    0.55795                                            1026200200703 
     1.2010    0.56020                                            1026200200704 
     1.2029    0.56196                                            1026200200705 
     1.2049    0.57537                                            1026200200706 
     1.2069    0.57305                                            1026200200707 
     1.2088    0.57348                                            1026200200708 
     1.2108    0.56260                                            1026200200709 
     1.2128    0.56224                                            1026200200710 
     1.2148    0.56457                                            1026200200711 
     1.2168    0.57738                                            1026200200712 
     1.2188    0.58958                                            1026200200713 
     1.2208    0.60325                                            1026200200714 
     1.2228    0.61207                                            1026200200715 
     1.2248    0.60659                                            1026200200716 
     1.2268    0.61872                                            1026200200717 
     1.2288    0.62269                                            1026200200718 
     1.2308    0.61527                                            1026200200719 
     1.2329    0.62969                                            1026200200720 
     1.2349    0.63063                                            1026200200721 
     1.2369    0.64345                                            1026200200722 
     1.2390    0.62106                                            1026200200723 
     1.2410    0.61102                                            1026200200724 
     1.2431    0.64500                                            1026200200725 
     1.2452    0.64570                                            1026200200726 
     1.2472    0.65058                                            1026200200727 
     1.2493    0.65010                                            1026200200728 
     1.2514    0.66968                                            1026200200729 
     1.2535    0.64540                                            1026200200730 
     1.2555    0.64297                                            1026200200731 
     1.2576    0.65402                                            1026200200732 
     1.2597    0.67406                                            1026200200733 
     1.2618    0.67309                                            1026200200734 
     1.2639    0.68951                                            1026200200735 
     1.2661    0.68024                                            1026200200736 
     1.2682    0.67190                                            1026200200737 
     1.2703    0.67012                                            1026200200738 
     1.2724    0.68509                                            1026200200739 
     1.2746    0.69634                                            1026200200740 
     1.2767    0.70855                                            1026200200741 
     1.2788    0.71689                                            1026200200742 
     1.2810    0.70463                                            1026200200743 
     1.2832    0.70497                                            1026200200744 
     1.2853    0.69965                                            1026200200745 
     1.2875    0.69631                                            1026200200746 
     1.2897    0.71012                                            1026200200747 
     1.2918    0.71865                                            1026200200748 
     1.2940    0.72575                                            1026200200749 
     1.2962    0.73014                                            1026200200750 
     1.2984    0.72203                                            1026200200751 
     1.3006    0.72059                                            1026200200752 
     1.3028    0.71181                                            1026200200753 
     1.3050    0.73724                                            1026200200754 
     1.3072    0.72767                                            1026200200755 
     1.3095    0.72077                                            1026200200756 
     1.3117    0.71504                                            1026200200757 
     1.3139    0.71783                                            1026200200758 
     1.3162    0.71142                                            1026200200759 
     1.3184    0.69920                                            1026200200760 
     1.3207    0.70758                                            1026200200761 
     1.3229    0.70929                                            1026200200762 
     1.3252    0.71827                                            1026200200763 
     1.3275    0.70270                                            1026200200764 
     1.3297    0.69428                                            1026200200765 
     1.3320    0.71747                                            1026200200766 
     1.3343    0.71785                                            1026200200767 
     1.3366    0.69714                                            1026200200768 
     1.3389    0.68166                                            1026200200769 
     1.3412    0.69206                                            1026200200770 
     1.3435    0.70334                                            1026200200771 
     1.3458    0.70270                                            1026200200772 
     1.3481    0.69563                                            1026200200773 
     1.3505    0.69337                                            1026200200774 
     1.3528    0.67681                                            1026200200775 
     1.3551    0.66932                                            1026200200776 
     1.3575    0.68015                                            1026200200777 
     1.3598    0.70057                                            1026200200778 
     1.3622    0.69266                                            1026200200779 
     1.3646    0.69268                                            1026200200780 
     1.3669    0.69751                                            1026200200781 
     1.3693    0.70199                                            1026200200782 
     1.3717    0.69048                                            1026200200783 
     1.3741    0.69890                                            1026200200784 
     1.3765    0.69621                                            1026200200785 
     1.3789    0.70194                                            1026200200786 
     1.3813    0.71691                                            1026200200787 
     1.3837    0.72109                                            1026200200788 
     1.3861    0.70626                                            1026200200789 
     1.3886    0.71439                                            1026200200790 
     1.3910    0.69993                                            1026200200791 
     1.3934    0.69488                                            1026200200792 
     1.3959    0.69028                                            1026200200793 
     1.3983    0.70035                                            1026200200794 
     1.4008    0.69615                                            1026200200795 
     1.4033    0.68584                                            1026200200796 
     1.4057    0.69832                                            1026200200797 
     1.4082    0.70030                                            1026200200798 
     1.4107    0.71802                                            1026200200799 
     1.4132    0.70847                                            1026200200800 
     1.4157    0.73183                                            1026200200801 
     1.4182    0.73687                                            1026200200802 
     1.4207    0.72288                                            1026200200803 
     1.4232    0.71995                                            1026200200804 
     1.4257    0.72029                                            1026200200805 
     1.4283    0.71482                                            1026200200806 
     1.4308    0.72015                                            1026200200807 
     1.4334    0.72258                                            1026200200808 
     1.4359    0.70328                                            1026200200809 
     1.4385    0.72003                                            1026200200810 
     1.4410    0.71657                                            1026200200811 
     1.4436    0.69251                                            1026200200812 
     1.4462    0.70415                                            1026200200813 
     1.4488    0.71155                                            1026200200814 
     1.4514    0.73174                                            1026200200815 
     1.4540    0.69937                                            1026200200816 
     1.4566    0.69485                                            1026200200817 
     1.4592    0.72462                                            1026200200818 
     1.4618    0.70956                                            1026200200819 
     1.4645    0.70059                                            1026200200820 
     1.4671    0.69578                                            1026200200821 
     1.4697    0.70589                                            1026200200822 
     1.4724    0.70074                                            1026200200823 
     1.4750    0.69499                                            1026200200824 
     1.4777    0.68317                                            1026200200825 
     1.4804    0.67281                                            1026200200826 
     1.4831    0.67584                                            1026200200827 
     1.4857    0.69061                                            1026200200828 
     1.4884    0.68932                                            1026200200829 
     1.4911    0.68219                                            1026200200830 
     1.4938    0.67273                                            1026200200831 
     1.4966    0.66392                                            1026200200832 
     1.4993    0.64508                                            1026200200833 
     1.5020    0.65585                                            1026200200834 
     1.5048    0.66522                                            1026200200835 
     1.5075    0.65229                                            1026200200836 
     1.5103    0.64750                                            1026200200837 
     1.5130    0.64454                                            1026200200838 
     1.5158    0.65171                                            1026200200839 
     1.5186    0.65671                                            1026200200840 
     1.5213    0.65644                                            1026200200841 
     1.5241    0.65456                                            1026200200842 
     1.5269    0.65924                                            1026200200843 
     1.5297    0.66494                                            1026200200844 
     1.5326    0.66139                                            1026200200845 
     1.5354    0.65872                                            1026200200846 
     1.5382    0.65039                                            1026200200847 
     1.5411    0.65322                                            1026200200848 
     1.5439    0.65310                                            1026200200849 
     1.5468    0.64349                                            1026200200850 
     1.5496    0.64775                                            1026200200851 
     1.5525    0.65301                                            1026200200852 
     1.5554    0.66816                                            1026200200853 
     1.5582    0.66608                                            1026200200854 
     1.5611    0.64935                                            1026200200855 
     1.5640    0.65609                                            1026200200856 
     1.5670    0.66479                                            1026200200857 
     1.5699    0.66887                                            1026200200858 
     1.5728    0.65668                                            1026200200859 
     1.5757    0.64629                                            1026200200860 
     1.5787    0.65390                                            1026200200861 
     1.5816    0.66607                                            1026200200862 
     1.5846    0.67230                                            1026200200863 
     1.5876    0.67942                                            1026200200864 
     1.5905    0.68834                                            1026200200865 
     1.5935    0.68107                                            1026200200866 
     1.5965    0.67930                                            1026200200867 
     1.5995    0.67906                                            1026200200868 
     1.6025    0.68306                                            1026200200869 
     1.6055    0.67444                                            1026200200870 
     1.6086    0.68219                                            1026200200871 
     1.6116    0.68320                                            1026200200872 
     1.6146    0.67739                                            1026200200873 
     1.6177    0.68117                                            1026200200874 
     1.6208    0.69149                                            1026200200875 
     1.6238    0.68724                                            1026200200876 
     1.6269    0.68041                                            1026200200877 
     1.6300    0.69477                                            1026200200878 
     1.6331    0.70821                                            1026200200879 
     1.6362    0.71177                                            1026200200880 
     1.6393    0.71536                                            1026200200881 
     1.6424    0.71477                                            1026200200882 
     1.6456    0.70667                                            1026200200883 
     1.6487    0.72114                                            1026200200884 
     1.6519    0.71689                                            1026200200885 
     1.6550    0.72046                                            1026200200886 
     1.6582    0.73647                                            1026200200887 
     1.6614    0.72632                                            1026200200888 
     1.6645    0.73733                                            1026200200889 
     1.6677    0.74343                                            1026200200890 
     1.6709    0.70390                                            1026200200891 
     1.6742    0.70281                                            1026200200892 
     1.6774    0.72965                                            1026200200893 
     1.6806    0.72183                                            1026200200894 
     1.6839    0.73614                                            1026200200895 
     1.6871    0.73890                                            1026200200896 
     1.6904    0.74752                                            1026200200897 
     1.6936    0.74796                                            1026200200898 
     1.6969    0.75053                                            1026200200899 
     1.7002    0.76784                                            1026200200900 
     1.7035    0.76219                                            1026200200901 
     1.7068    0.77112                                            1026200200902 
     1.7101    0.75262                                            1026200200903 
     1.7135    0.75121                                            1026200200904 
     1.7168    0.74988                                            1026200200905 
     1.7201    0.75005                                            1026200200906 
     1.7235    0.74711                                            1026200200907 
     1.7269    0.72939                                            1026200200908 
     1.7302    0.74101                                            1026200200909 
     1.7336    0.74475                                            1026200200910 
     1.7370    0.74052                                            1026200200911 
     1.7404    0.74473                                            1026200200912 
     1.7439    0.73694                                            1026200200913 
     1.7473    0.74044                                            1026200200914 
     1.7507    0.76386                                            1026200200915 
     1.7542    0.75818                                            1026200200916 
     1.7576    0.73637                                            1026200200917 
     1.7611    0.73886                                            1026200200918 
     1.7646    0.75420                                            1026200200919 
     1.7681    0.76963                                            1026200200920 
     1.7716    0.77555                                            1026200200921 
     1.7751    0.77167                                            1026200200922 
     1.7786    0.76440                                            1026200200923 
     1.7821    0.74737                                            1026200200924 
     1.7857    0.75332                                            1026200200925 
     1.7892    0.74836                                            1026200200926 
     1.7928    0.76042                                            1026200200927 
     1.7963    0.76611                                            1026200200928 
     1.7999    0.76269                                            1026200200929 
     1.8035    0.77026                                            1026200200930 
     1.8071    0.75821                                            1026200200931 
     1.8107    0.75044                                            1026200200932 
     1.8144    0.75740                                            1026200200933 
     1.8180    0.76147                                            1026200200934 
     1.8216    0.75340                                            1026200200935 
     1.8253    0.77445                                            1026200200936 
     1.8290    0.77324                                            1026200200937 
     1.8327    0.76513                                            1026200200938 
     1.8364    0.75971                                            1026200200939 
     1.8401    0.74182                                            1026200200940 
     1.8438    0.74484                                            1026200200941 
     1.8475    0.75071                                            1026200200942 
     1.8512    0.76441                                            1026200200943 
     1.8550    0.74545                                            1026200200944 
     1.8587    0.72593                                            1026200200945 
     1.8625    0.72139                                            1026200200946 
     1.8663    0.74216                                            1026200200947 
     1.8701    0.78789                                            1026200200948 
     1.8739    0.75943                                            1026200200949 
     1.8777    0.76175                                            1026200200950 
     1.8815    0.80489                                            1026200200951 
     1.8854    0.78257                                            1026200200952 
     1.8892    0.77154                                            1026200200953 
     1.8931    0.77109                                            1026200200954 
     1.8970    0.76812                                            1026200200955 
     1.9009    0.77240                                            1026200200956 
     1.9048    0.80944                                            1026200200957 
     1.9087    0.79872                                            1026200200958 
     1.9126    0.80158                                            1026200200959 
     1.9165    0.78519                                            1026200200960 
     1.9205    0.77562                                            1026200200961 
     1.9245    0.78697                                            1026200200962 
     1.9284    0.78517                                            1026200200963 
     1.9324    0.78310                                            1026200200964 
     1.9364    0.77700                                            1026200200965 
     1.9404    0.77674                                            1026200200966 
     1.9445    0.77465                                            1026200200967 
     1.9485    0.76488                                            1026200200968 
     1.9525    0.79226                                            1026200200969 
     1.9566    0.79254                                            1026200200970 
     1.9607    0.79155                                            1026200200971 
     1.9648    0.79129                                            1026200200972 
     1.9689    0.79542                                            1026200200973 
     1.9730    0.80466                                            1026200200974 
     1.9771    0.77326                                            1026200200975 
     1.9812    0.78312                                            1026200200976 
     1.9854    0.79058                                            1026200200977 
     1.9895    0.80330                                            1026200200978 
     1.9937    0.80500                                            1026200200979 
     1.9979    0.81267                                            1026200200980 
     2.0021    0.82943                                            1026200200981 
     2.0063    0.82261                                            1026200200982 
     2.0106    0.78945                                            1026200200983 
     2.0148    0.78270                                            1026200200984 
     2.0191    0.79284                                            1026200200985 
     2.0233    0.77478                                            1026200200986 
     2.0276    0.80974                                            1026200200987 
     2.0319    0.83928                                            1026200200988 
     2.0362    0.80742                                            1026200200989 
     2.0406    0.79013                                            1026200200990 
     2.0449    0.80207                                            1026200200991 
     2.0492    0.82302                                            1026200200992 
     2.0536    0.81318                                            1026200200993 
     2.0580    0.80145                                            1026200200994 
     2.0624    0.80540                                            1026200200995 
     2.0668    0.80606                                            1026200200996 
     2.0712    0.81595                                            1026200200997 
     2.0757    0.81511                                            1026200200998 
     2.0801    0.82605                                            1026200200999 
     2.0846    0.82688                                            1026200201000 
     2.0891    0.83146                                            1026200201001 
     2.0936    0.84453                                            1026200201002 
     2.0981    0.82394                                            1026200201003 
     2.1026    0.81267                                            1026200201004 
     2.1071    0.81920                                            1026200201005 
     2.1117    0.82558                                            1026200201006 
     2.1163    0.81557                                            1026200201007 
     2.1208    0.82344                                            1026200201008 
     2.1254    0.84453                                            1026200201009 
     2.1300    0.85302                                            1026200201010 
     2.1347    0.84800                                            1026200201011 
     2.1393    0.82426                                            1026200201012 
     2.1440    0.80171                                            1026200201013 
     2.1487    0.81887                                            1026200201014 
     2.1533    0.85479                                            1026200201015 
     2.1580    0.85114                                            1026200201016 
     2.1628    0.84594                                            1026200201017 
     2.1675    0.82516                                            1026200201018 
     2.1723    0.85009                                            1026200201019 
     2.1770    0.83040                                            1026200201020 
     2.1818    0.79325                                            1026200201021 
     2.1866    0.79920                                            1026200201022 
     2.1914    0.83571                                            1026200201023 
     2.1962    0.83840                                            1026200201024 
     2.2011    0.81945                                            1026200201025 
     2.2060    0.84063                                            1026200201026 
     2.2108    0.87957                                            1026200201027 
     2.2157    0.86210                                            1026200201028 
     2.2206    0.83163                                            1026200201029 
     2.2256    0.81715                                            1026200201030 
     2.2305    0.81713                                            1026200201031 
     2.2355    0.82868                                            1026200201032 
     2.2404    0.85134                                            1026200201033 
     2.2454    0.88036                                            1026200201034 
     2.2504    0.87905                                            1026200201035 
     2.2555    0.84407                                            1026200201036 
     2.2605    0.82799                                            1026200201037 
     2.2656    0.84552                                            1026200201038 
     2.2707    0.85038                                            1026200201039 
     2.2758    0.86206                                            1026200201040 
     2.2809    0.86806                                            1026200201041 
     2.2860    0.85203                                            1026200201042 
     2.2911    0.85733                                            1026200201043 
     2.2963    0.86930                                            1026200201044 
     2.3015    0.84514                                            1026200201045 
     2.3067    0.84826                                            1026200201046 
     2.3119    0.84653                                            1026200201047 
     2.3171    0.85199                                            1026200201048 
     2.3224    0.87681                                            1026200201049 
     2.3277    0.88091                                            1026200201050 
     2.3329    0.85918                                            1026200201051 
     2.3383    0.85850                                            1026200201052 
     2.3436    0.84163                                            1026200201053 
     2.3489    0.83695                                            1026200201054 
     2.3543    0.84853                                            1026200201055 
     2.3597    0.84017                                            1026200201056 
     2.3651    0.82678                                            1026200201057 
     2.3705    0.82901                                            1026200201058 
     2.3759    0.83637                                            1026200201059 
     2.3814    0.84097                                            1026200201060 
     2.3868    0.84288                                            1026200201061 
     2.3923    0.84578                                            1026200201062 
     2.3978    0.84992                                            1026200201063 
     2.4034    0.85502                                            1026200201064 
     2.4089    0.86197                                            1026200201065 
     2.4145    0.87157                                            1026200201066 
     2.4201    0.86343                                            1026200201067 
     2.4257    0.85812                                            1026200201068 
     2.4313    0.87197                                            1026200201069 
     2.4370    0.85584                                            1026200201070 
     2.4426    0.82640                                            1026200201071 
     2.4483    0.85541                                            1026200201072 
     2.4540    0.84432                                            1026200201073 
     2.4597    0.86346                                            1026200201074 
     2.4655    0.86877                                            1026200201075 
     2.4713    0.88231                                            1026200201076 
     2.4770    0.88146                                            1026200201077 
     2.4828    0.84622                                            1026200201078 
     2.4887    0.84241                                            1026200201079 
     2.4945    0.82909                                            1026200201080 
     2.5004    0.83900                                            1026200201081 
     2.5063    0.85214                                            1026200201082 
     2.5122    0.83376                                            1026200201083 
     2.5181    0.84031                                            1026200201084 
     2.5241    0.83667                                            1026200201085 
     2.5300    0.82868                                            1026200201086 
     2.5360    0.83722                                            1026200201087 
     2.5421    0.83481                                            1026200201088 
     2.5481    0.83514                                            1026200201089 
     2.5541    0.84072                                            1026200201090 
     2.5602    0.83811                                            1026200201091 
     2.5663    0.83615                                            1026200201092 
     2.5725    0.83208                                            1026200201093 
     2.5786    0.86374                                            1026200201094 
     2.5848    0.82650                                            1026200201095 
     2.5910    0.85565                                            1026200201096 
     2.5972    0.82778                                            1026200201097 
     2.6034    0.82311                                            1026200201098 
     2.6097    0.83172                                            1026200201099 
     2.6159    0.80286                                            1026200201100 
     2.6222    0.80217                                            1026200201101 
     2.6286    0.81122                                            1026200201102 
     2.6349    0.78760                                            1026200201103 
     2.6413    0.80517                                            1026200201104 
     2.6477    0.81369                                            1026200201105 
     2.6541    0.82819                                            1026200201106 
     2.6605    0.83313                                            1026200201107 
     2.6670    0.78935                                            1026200201108 
     2.6735    0.79361                                            1026200201109 
     2.6800    0.81902                                            1026200201110 
     2.6865    0.82380                                            1026200201111 
     2.6931    0.81010                                            1026200201112 
     2.6997    0.82650                                            1026200201113 
     2.7063    0.83337                                            1026200201114 
     2.7129    0.84105                                            1026200201115 
     2.7196    0.83555                                            1026200201116 
     2.7263    0.83062                                            1026200201117 
     2.7330    0.83025                                            1026200201118 
     2.7397    0.84955                                            1026200201119 
     2.7465    0.82630                                            1026200201120 
     2.7532    0.81343                                            1026200201121 
     2.7601    0.79992                                            1026200201122 
     2.7669    0.81284                                            1026200201123 
     2.7737    0.80753                                            1026200201124 
     2.7806    0.78085                                            1026200201125 
     2.7875    0.80975                                            1026200201126 
     2.7945    0.81380                                            1026200201127 
     2.8014    0.80630                                            1026200201128 
     2.8084    0.81562                                            1026200201129 
     2.8154    0.80596                                            1026200201130 
     2.8225    0.77469                                            1026200201131 
     2.8295    0.79091                                            1026200201132 
     2.8366    0.77859                                            1026200201133 
     2.8437    0.78957                                            1026200201134 
     2.8509    0.79264                                            1026200201135 
     2.8581    0.79333                                            1026200201136 
     2.8653    0.80555                                            1026200201137 
     2.8725    0.79290                                            1026200201138 
     2.8797    0.81622                                            1026200201139 
     2.8870    0.81769                                            1026200201140 
     2.8943    0.80824                                            1026200201141 
     2.9017    0.82547                                            1026200201142 
     2.9090    0.80438                                            1026200201143 
     2.9164    0.82009                                            1026200201144 
     2.9238    0.82888                                            1026200201145 
     2.9313    0.84858                                            1026200201146 
     2.9388    0.84010                                            1026200201147 
     2.9463    0.81674                                            1026200201148 
     2.9538    0.77104                                            1026200201149 
     2.9614    0.79178                                            1026200201150 
     2.9690    0.82066                                            1026200201151 
     2.9766    0.84004                                            1026200201152 
     2.9843    0.85924                                            1026200201153 
     2.9919    0.82696                                            1026200201154 
     2.9997    0.80171                                            1026200201155 
     3.0074    0.82585                                            1026200201156 
     3.0152    0.83335                                            1026200201157 
     3.0230    0.83231                                            1026200201158 
     3.0308    0.79821                                            1026200201159 
     3.0387    0.80559                                            1026200201160 
     3.0466    0.78408                                            1026200201161 
     3.0545    0.78441                                            1026200201162 
     3.0624    0.78897                                            1026200201163 
     3.0704    0.79366                                            1026200201164 
     3.0785    0.81284                                            1026200201165 
     3.0865    0.84089                                            1026200201166 
     3.0946    0.81229                                            1026200201167 
     3.1027    0.79417                                            1026200201168 
     3.1108    0.79845                                            1026200201169 
     3.1190    0.83071                                            1026200201170 
     3.1272    0.82193                                            1026200201171 
     3.1355    0.81139                                            1026200201172 
     3.1438    0.80955                                            1026200201173 
     3.1521    0.80468                                            1026200201174 
     3.1604    0.80336                                            1026200201175 
     3.1688    0.80381                                            1026200201176 
     3.1772    0.83241                                            1026200201177 
     3.1856    0.79974                                            1026200201178 
     3.1941    0.78744                                            1026200201179 
     3.2026    0.74284                                            1026200201180 
     3.2112    0.77864                                            1026200201181 
     3.2197    0.79331                                            1026200201182 
     3.2283    0.81502                                            1026200201183 
     3.2370    0.78158                                            1026200201184 
     3.2457    0.78128                                            1026200201185 
     3.2544    0.79122                                            1026200201186 
     3.2631    0.79290                                            1026200201187 
     3.2719    0.75703                                            1026200201188 
     3.2808    0.74411                                            1026200201189 
     3.2896    0.78732                                            1026200201190 
     3.2985    0.81145                                            1026200201191 
     3.3074    0.81411                                            1026200201192 
     3.3164    0.82351                                            1026200201193 
     3.3254    0.85226                                            1026200201194 
     3.3344    0.83915                                            1026200201195 
     3.3435    0.79710                                            1026200201196 
     3.3526    0.79598                                            1026200201197 
     3.3618    0.79043                                            1026200201198 
     3.3710    0.77816                                            1026200201199 
     3.3802    0.74312                                            1026200201200 
     3.3895    0.74166                                            1026200201201 
     3.3988    0.77802                                            1026200201202 
     3.4081    0.79152                                            1026200201203 
     3.4175    0.79352                                            1026200201204 
     3.4269    0.76697                                            1026200201205 
     3.4364    0.79959                                            1026200201206 
     3.4459    0.81583                                            1026200201207 
     3.4554    0.83822                                            1026200201208 
     3.4650    0.82337                                            1026200201209 
     3.4746    0.80200                                            1026200201210 
     3.4843    0.77838                                            1026200201211 
     3.4940    0.79755                                            1026200201212 
     3.5037    0.80467                                            1026200201213 
     3.5135    0.79133                                            1026200201214 
     3.5233    0.78668                                            1026200201215 
     3.5332    0.78998                                            1026200201216 
     3.5431    0.77845                                            1026200201217 
     3.5530    0.79080                                            1026200201218 
     3.5630    0.81579                                            1026200201219 
     3.5730    0.80966                                            1026200201220 
     3.5831    0.79305                                            1026200201221 
     3.5932    0.81666                                            1026200201222 
     3.6034    0.82143                                            1026200201223 
     3.6136    0.79021                                            1026200201224 
     3.6238    0.77545                                            1026200201225 
     3.6341    0.79960                                            1026200201226 
     3.6444    0.83983                                            1026200201227 
     3.6548    0.85068                                            1026200201228 
     3.6652    0.85747                                            1026200201229 
     3.6757    0.79723                                            1026200201230 
     3.6862    0.80174                                            1026200201231 
     3.6968    0.77960                                            1026200201232 
     3.7074    0.79599                                            1026200201233 
     3.7180    0.81106                                            1026200201234 
     3.7287    0.81078                                            1026200201235 
     3.7394    0.79703                                            1026200201236 
     3.7502    0.78478                                            1026200201237 
     3.7611    0.76992                                            1026200201238 
     3.7719    0.82448                                            1026200201239 
     3.7829    0.83950                                            1026200201240 
     3.7938    0.82430                                            1026200201241 
     3.8049    0.80572                                            1026200201242 
     3.8159    0.76800                                            1026200201243 
     3.8271    0.81711                                            1026200201244 
     3.8382    0.86450                                            1026200201245 
     3.8494    0.86035                                            1026200201246 
     3.8607    0.77839                                            1026200201247 
     3.8720    0.78784                                            1026200201248 
     3.8834    0.81011                                            1026200201249 
     3.8948    0.80471                                            1026200201250 
     3.9063    0.84556                                            1026200201251 
     3.9178    0.84139                                            1026200201252 
     3.9294    0.86315                                            1026200201253 
     3.9410    0.82845                                            1026200201254 
     3.9526    0.77878                                            1026200201255 
     3.9644    0.80982                                            1026200201256 
     3.9761    0.82255                                            1026200201257 
     3.9880    0.79587                                            1026200201258 
     3.9999    0.81945                                            1026200201259 
     4.0118    0.83196                                            1026200201260 
     4.0238    0.82778                                            1026200201261 
     4.0358    0.81922                                            1026200201262 
     4.0479    0.83415                                            1026200201263 
     4.0601    0.78451                                            1026200201264 
     4.0723    0.79197                                            1026200201265 
     4.0845    0.83246                                            1026200201266 
     4.0969    0.83701                                            1026200201267 
     4.1092    0.82179                                            1026200201268 
     4.1217    0.81289                                            1026200201269 
     4.1341    0.82335                                            1026200201270 
     4.1467    0.84603                                            1026200201271 
     4.1593    0.82240                                            1026200201272 
     4.1719    0.79496                                            1026200201273 
     4.1847    0.85200                                            1026200201274 
     4.1974    0.82079                                            1026200201275 
     4.2103    0.83757                                            1026200201276 
     4.2232    0.85120                                            1026200201277 
     4.2361    0.81676                                            1026200201278 
     4.2491    0.83081                                            1026200201279 
     4.2622    0.80419                                            1026200201280 
     4.2753    0.81555                                            1026200201281 
     4.2885    0.83821                                            1026200201282 
     4.3018    0.84123                                            1026200201283 
     4.3151    0.83498                                            1026200201284 
     4.3285    0.80945                                            1026200201285 
     4.3419    0.82012                                            1026200201286 
     4.3554    0.81667                                            1026200201287 
     4.3690    0.80951                                            1026200201288 
     4.3826    0.78027                                            1026200201289 
     4.3963    0.82961                                            1026200201290 
     4.4101    0.86360                                            1026200201291 
     4.4239    0.81843                                            1026200201292 
     4.4378    0.77645                                            1026200201293 
     4.4517    0.76957                                            1026200201294 
     4.4657    0.83751                                            1026200201295 
     4.4798    0.82546                                            1026200201296 
     4.4940    0.82199                                            1026200201297 
     4.5082    0.81587                                            1026200201298 
     4.5225    0.79284                                            1026200201299 
     4.5369    0.79756                                            1026200201300 
     4.5513    0.82389                                            1026200201301 
     4.5658    0.82868                                            1026200201302 
     4.5803    0.82350                                            1026200201303 
     4.5950    0.81927                                            1026200201304 
     4.6097    0.83883                                            1026200201305 
     4.6245    0.81294                                            1026200201306 
     4.6393    0.81941                                            1026200201307 
     4.6542    0.77074                                            1026200201308 
     4.6692    0.80008                                            1026200201309 
     4.6843    0.77635                                            1026200201310 
     4.6994    0.78306                                            1026200201311 
     4.7146    0.82129                                            1026200201312 
     4.7299    0.77920                                            1026200201313 
     4.7453    0.78975                                            1026200201314 
     4.7607    0.83171                                            1026200201315 
     4.7762    0.81359                                            1026200201316 
     4.7918    0.80154                                            1026200201317 
     4.8075    0.77750                                            1026200201318 
     4.8232    0.79033                                            1026200201319 
     4.8390    0.76781                                            1026200201320 
     4.8549    0.78965                                            1026200201321 
     4.8709    0.74325                                            1026200201322 
     4.8869    0.76774                                            1026200201323 
     4.9031    0.80705                                            1026200201324 
     4.9193    0.81993                                            1026200201325 
     4.9356    0.77101                                            1026200201326 
     4.9520    0.81169                                            1026200201327 
     4.9684    0.79651                                            1026200201328 
     4.9850    0.76889                                            1026200201329 
     5.0016    0.80195                                            1026200201330 
     5.0183    0.78578                                            1026200201331 
     5.0351    0.81492                                            1026200201332 
     5.0519    0.78784                                            1026200201333 
     5.0689    0.75002                                            1026200201334 
     5.0860    0.75405                                            1026200201335 
     5.1031    0.79330                                            1026200201336 
     5.1203    0.78787                                            1026200201337 
     5.1376    0.78742                                            1026200201338 
     5.1550    0.79108                                            1026200201339 
     5.1725    0.78818                                            1026200201340 
     5.1901    0.77071                                            1026200201341 
     5.2077    0.80306                                            1026200201342 
     5.2255    0.82326                                            1026200201343 
     5.2433    0.81723                                            1026200201344 
     5.2613    0.78899                                            1026200201345 
     5.2793    0.80025                                            1026200201346 
     5.2974    0.79837                                            1026200201347 
     5.3156    0.75948                                            1026200201348 
     5.3339    0.74885                                            1026200201349 
     5.3523    0.75857                                            1026200201350 
     5.3708    0.76614                                            1026200201351 
     5.3894    0.81181                                            1026200201352 
     5.4081    0.81421                                            1026200201353 
     5.4269    0.81228                                            1026200201354 
     5.4458    0.80910                                            1026200201355 
     5.4648    0.77379                                            1026200201356 
     5.4839    0.76408                                            1026200201357 
     5.5031    0.80155                                            1026200201358 
     5.5224    0.81381                                            1026200201359 
     5.5418    0.79275                                            1026200201360 
     5.5613    0.79908                                            1026200201361 
     5.5809    0.82261                                            1026200201362 
     5.6006    0.78897                                            1026200201363 
     5.6204    0.75215                                            1026200201364 
     5.6403    0.77354                                            1026200201365 
     5.6603    0.79317                                            1026200201366 
     5.6804    0.86224                                            1026200201367 
     5.7007    0.85029                                            1026200201368 
     5.7210    0.84165                                            1026200201369 
     5.7415    0.83642                                            1026200201370 
     5.7620    0.79030                                            1026200201371 
     5.7827    0.83084                                            1026200201372 
     5.8035    0.87266                                            1026200201373 
     5.8244    0.87577                                            1026200201374 
     5.8454    0.89918                                            1026200201375 
     5.8665    0.86451                                            1026200201376 
     5.8878    0.82736                                            1026200201377 
     5.9091    0.82315                                            1026200201378 
     5.9306    0.87750                                            1026200201379 
     5.9522    0.93293                                            1026200201380 
     5.9739    0.85908                                            1026200201381 
     5.9957    0.86301                                            1026200201382 
     6.0177    0.86203                                            1026200201383 
     6.0397    0.89317                                            1026200201384 
     6.0619    0.86878                                            1026200201385 
     6.0843    0.92629                                            1026200201386 
     6.1067    0.94035                                            1026200201387 
     6.1293    0.89641                                            1026200201388 
     6.1519    0.90589                                            1026200201389 
     6.1748    0.92819                                            1026200201390 
     6.1977    0.87649                                            1026200201391 
     6.2208    0.92805                                            1026200201392 
     6.2440    0.95816                                            1026200201393 
     6.2673    0.92631                                            1026200201394 
     6.2908    0.94779                                            1026200201395 
     6.3144    0.98013                                            1026200201396 
     6.3381    1.03660                                            1026200201397 
     6.3620    1.06235                                            1026200201398 
     6.3860    0.96722                                            1026200201399 
     6.4101    1.04552                                            1026200201400 
     6.4344    1.03928                                            1026200201401 
     6.4588    1.06591                                            1026200201402 
     6.4833    1.08979                                            1026200201403 
     6.5080    1.13376                                            1026200201404 
     6.5329    1.07101                                            1026200201405 
     6.5579    1.08957                                            1026200201406 
     6.5830    1.19546                                            1026200201407 
     6.6082    1.22233                                            1026200201408 
     6.6337    1.22213                                            1026200201409 
     6.6592    1.20368                                            1026200201410 
     6.6849    1.23781                                            1026200201411 
     6.7108    1.24096                                            1026200201412 
     6.7368    1.25409                                            1026200201413 
     6.7630    1.23319                                            1026200201414 
     6.7893    1.26296                                            1026200201415 
     6.8157    1.32723                                            1026200201416 
     6.8424    1.27323                                            1026200201417 
     6.8692    1.24275                                            1026200201418 
     6.8961    1.28814                                            1026200201419 
     6.9232    1.34479                                            1026200201420 
     6.9505    1.36271                                            1026200201421 
     6.9779    1.40029                                            1026200201422 
     7.0055    1.40887                                            1026200201423 
     7.0332    1.39318                                            1026200201424 
     7.0611    1.35069                                            1026200201425 
     7.0892    1.31655                                            1026200201426 
     7.1175    1.33052                                            1026200201427 
     7.1459    1.32092                                            1026200201428 
     7.1745    1.28255                                            1026200201429 
     7.2032    1.27445                                            1026200201430 
     7.2322    1.30508                                            1026200201431 
     7.2613    1.38136                                            1026200201432 
     7.2906    1.32357                                            1026200201433 
     7.3201    1.25642                                            1026200201434 
     7.3497    1.26282                                            1026200201435 
     7.3795    1.28378                                            1026200201436 
     7.4096    1.31947                                            1026200201437 
     7.4398    1.39120                                            1026200201438 
     7.4701    1.44243                                            1026200201439 
     7.5007    1.39671                                            1026200201440 
     7.5315    1.35405                                            1026200201441 
     7.5624    1.31499                                            1026200201442 
     7.5936    1.26882                                            1026200201443 
     7.6249    1.23425                                            1026200201444 
     7.6564    1.24381                                            1026200201445 
     7.6882    1.28646                                            1026200201446 
     7.7201    1.28934                                            1026200201447 
     7.7522    1.28088                                            1026200201448 
     7.7845    1.23284                                            1026200201449 
     7.8171    1.20571                                            1026200201450 
     7.8498    1.26145                                            1026200201451 
     7.8827    1.23294                                            1026200201452 
     7.9159    1.19407                                            1026200201453 
     7.9493    1.23710                                            1026200201454 
     7.9828    1.19547                                            1026200201455 
     8.0166    1.28797                                            1026200201456 
     8.0506    1.33024                                            1026200201457 
     8.0849    1.30556                                            1026200201458 
     8.1193    1.30414                                            1026200201459 
     8.1540    1.29913                                            1026200201460 
     8.1888    1.32922                                            1026200201461 
     8.2240    1.25093                                            1026200201462 
     8.2593    1.25929                                            1026200201463 
     8.2949    1.30547                                            1026200201464 
     8.3307    1.31899                                            1026200201465 
     8.3667    1.31838                                            1026200201466 
     8.4030    1.17850                                            1026200201467 
     8.4395    1.27185                                            1026200201468 
     8.4762    1.32920                                            1026200201469 
     8.5132    1.27714                                            1026200201470 
     8.5504    1.26971                                            1026200201471 
     8.5879    1.32084                                            1026200201472 
     8.6256    1.20414                                            1026200201473 
     8.6636    1.22554                                            1026200201474 
     8.7018    1.30024                                            1026200201475 
     8.7403    1.25016                                            1026200201476 
     8.7791    1.17263                                            1026200201477 
     8.8181    1.20071                                            1026200201478 
     8.8573    1.24733                                            1026200201479 
     8.8969    1.12393                                            1026200201480 
     8.9366    1.10862                                            1026200201481 
     8.9767    1.15625                                            1026200201482 
     9.0170    1.16158                                            1026200201483 
     9.0576    1.09308                                            1026200201484 
     9.0985    1.02602                                            1026200201485 
     9.1397    1.03411                                            1026200201486 
     9.1811    1.00608                                            1026200201487 
     9.2229    1.03924                                            1026200201488 
     9.2649    1.07249                                            1026200201489 
     9.3072    1.06927                                            1026200201490 
     9.3498    1.04913                                            1026200201491 
     9.3926    1.03656                                            1026200201492 
     9.4358    1.03126                                            1026200201493 
     9.4793    1.01599                                            1026200201494 
     9.5231    1.01947                                            1026200201495 
ENDDATA           1485          0                                 1026200201496 
ENDSUBENT         1495          0                                 1026200299999 
ENDENTRY             2          0                                 1026299999999 
