ENTRY            10272   20011204                             00001027200000001 
SUBENT        10272001   20011204                             00001027200100001 
BIB                 13         21                                 1027200100002 
INSTITUTE  (1USAMTR)                                              1027200100003 
REFERENCE  (R,IN-1407,66,197012)                                  1027200100004 
AUTHOR     (J.R.Berreth,F.B.Simpson)                              1027200100005 
TITLE      Total neutron cross section of 243Am from 0.01 to 25   1027200100006 
            eV.                                                   1027200100007 
FACILITY   (CHOPF,1USAMTR)                                        1027200100008 
INC-SOURCE (REAC)                                                 1027200100009 
SAMPLE     Americium oxide samples with inverse thicknesses of    1027200100010 
            6018.0,1288.2,279.3 barns/atom of 243Am.              1027200100011 
           Isotopic composition of sample: 243Am (99.73 atom%),   1027200100012 
                     241AM (0.15 atom%),   244Am (0.03 atom%),    1027200100013 
                     isotopes of Pu (0.09 atom%).                 1027200100014 
METHOD     (TOF)                                                  1027200100015 
DETECTOR   (BF3)                                                  1027200100016 
CORRECTION Data corrected for small differences in sample holders 1027200100017 
            at the thermal region                                 1027200100018 
ERR-ANALYS No information on uncertainties.                       1027200100019 
STATUS     (APRVD) Approved by author.                            1027200100020 
HISTORY    (19720627C)                                            1027200100021 
           (19821118A) Converted to REACTION formalism            1027200100022 
           (20011204A) Converted to new date formats, lower case. 1027200100023 
ENDBIB              21          0                                 1027200100024 
NOCOMMON             0          0                                 1027200100025 
ENDSUBENT           24          0                                 1027200199999 
SUBENT        10272002   20011204                             00001027200200001 
BIB                  4          6                                 1027200200002 
REACTION  1(95-AM-243(N,0),,EN)                                   1027200200003 
          2(95-AM-243(N,EL),,WID/RED)                             1027200200004 
          3(95-AM-243(N,G),,WID)                                  1027200200005 
ASSUMED    (ASSUM,95-AM-243(N,G),,WID)                            1027200200006 
STATUS     Data taken from Table I of reference.                  1027200200007 
HISTORY    (19821118A) Subentries 2,3 combined.                   1027200200008 
ENDBIB               6          0                                 1027200200009 
COMMON               1          3                                 1027200200010 
MOMENTUM L                                                        1027200200011 
NO-DIM                                                            1027200200012 
 0.                                                               1027200200013 
ENDCOMMON            3          0                                 1027200200014 
DATA                 4         36                                 1027200200015 
DATA      1DATA      2DATA      3ASSUM                            1027200200016 
EV         MILLI-EV   MILLI-EV   MILLI-EV                         1027200200017 
-2.000     0.8400                 42.                             1027200200018 
 0.420     0.0013      39.                                        1027200200019 
 0.983     0.0151      40.                                        1027200200020 
 1.356     0.9500      43.                                        1027200200021 
 1.746     0.1810      40.                                        1027200200022 
 3.141     0.0066      37.                                        1027200200023 
 3.430     0.1536      42.                                        1027200200024 
 3.857     0.0068      56.                                        1027200200025 
 5.141     0.1370      42.                                        1027200200026 
 6.572     0.3556                 42.                             1027200200027 
 7.085     0.0269                 42.                             1027200200028 
 7.886     0.4547                 42.                             1027200200029 
 8.447     0.0044                 42.                             1027200200030 
 8.800     0.0406                 42.                             1027200200031 
 9.345     0.0480                 42.                             1027200200032 
10.337     0.1250                 42.                             1027200200033 
10.885     0.0050                 42.                             1027200200034 
11.317     0.0840                 42.                             1027200200035 
11.733     0.0324                 42.                             1027200200036 
12.169     0.0497                 42.                             1027200200037 
12.921     0.6627                 42.                             1027200200038 
13.201     0.3668                 42.                             1027200200039 
15.210     0.0325                 42.                             1027200200040 
15.469     0.3058                 42.                             1027200200041 
16.278     0.1317                 42.                             1027200200042 
16.645     0.0480                 42.                             1027200200043 
17.941     0.0517                 42.                             1027200200044 
18.246     0.0128                 42.                             1027200200045 
19.606     0.0557                 42.                             1027200200046 
20.009     0.0256                 42.                             1027200200047 
21.098     0.1570                 42.                             1027200200048 
21.225     0.1775                 42.                             1027200200049 
21.997     0.0389                 42.                             1027200200050 
22.623     0.0574                 42.                             1027200200051 
22.826     0.3203                 42.                             1027200200052 
24.588     0.1944                 42.                             1027200200053 
ENDDATA             38          0                                 1027200200054 
ENDSUBENT           53          0                                 1027200299999 
NOSUBENT      10272003   19821118                             00001027200300001 
SUBENT        10272004   20011204                             00001027200400001 
BIB                  2          2                                 1027200400002 
REACTION   (95-AM-243(N,TOT),,SIG)                                1027200400003 
STATUS     Data taken from text of reference.                     1027200400004 
ENDBIB               2          0                                 1027200400005 
NOCOMMON             0          0                                 1027200400006 
DATA                 3          1                                 1027200400007 
EN         DATA       DATA-ERR                                    1027200400008 
EV         B          B                                           1027200400009 
0.0253     85.0       4.0                                         1027200400010 
ENDDATA              3          0                                 1027200400011 
ENDSUBENT           10          0                                 1027200499999 
SUBENT        10272005   20011204                             00001027200500001 
BIB                  3          3                                 1027200500002 
REACTION   (95-AM-243(N,TOT),,SIG)                                1027200500003 
STATUS     Tabulated data received from F.B.Simpson, 16 Aug. 1972.1027200500004 
HISTORY    (19721002C)                                            1027200500005 
ENDBIB               3          0                                 1027200500006 
NOCOMMON             0          0                                 1027200500007 
DATA                 2        922                                 1027200500008 
EN         DATA                                                   1027200500009 
EV         B                                                      1027200500010 
 0.00804    155.82                                                1027200500011 
 0.00841    133.01                                                1027200500012 
 0.00883    123.51                                                1027200500013 
 0.00927    123.61                                                1027200500014 
 0.00972    124.59                                                1027200500015 
 0.01020    127.98                                                1027200500016 
 0.01072    107.92                                                1027200500017 
 0.01126    112.98                                                1027200500018 
 0.01180    111.47                                                1027200500019 
 0.01239    110.86                                                1027200500020 
 0.01303    103.92                                                1027200500021 
 0.01367    106.88                                                1027200500022 
 0.01437    109.98                                                1027200500023 
 0.01512    105.52                                                1027200500024 
 0.01585    93.41                                                 1027200500025 
 0.01663    95.06                                                 1027200500026 
 0.01746    96.42                                                 1027200500027 
 0.01831    93.56                                                 1027200500028 
 0.01922    90.11                                                 1027200500029 
 0.02020    86.27                                                 1027200500030 
 0.02125    87.30                                                 1027200500031 
 0.02232    87.65                                                 1027200500032 
 0.02339    86.13                                                 1027200500033 
 0.02454    84.90                                                 1027200500034 
 0.02577    85.19                                                 1027200500035 
 0.02710    84.65                                                 1027200500036 
 0.02843    82.86                                                 1027200500037 
 0.02986    80.29                                                 1027200500038 
 0.03140    78.99                                                 1027200500039 
 0.03293    78.18                                                 1027200500040 
 0.03458    77.89                                                 1027200500041 
 0.03635    74.93                                                 1027200500042 
 0.03810    72.98                                                 1027200500043 
 0.03998    71.23                                                 1027200500044 
 0.04199    70.00                                                 1027200500045 
 0.04417    67.80                                                 1027200500046 
 0.04652    64.68                                                 1027200500047 
 0.04882    63.19                                                 1027200500048 
 0.05129    62.64                                                 1027200500049 
 0.05369    63.11                                                 1027200500050 
 0.05625    60.94                                                 1027200500051 
 0.05901    59.88                                                 1027200500052 
 0.06197    59.95                                                 1027200500053 
 0.06515    60.58                                                 1027200500054 
 0.06820    55.96                                                 1027200500055 
 0.07189    58.74                                                 1027200500056 
 0.07589    54.67                                                 1027200500057 
 0.07923    55.69                                                 1027200500058 
 0.08280    54.81                                                 1027200500059 
 0.08718    53.59                                                 1027200500060 
 0.09192    51.21                                                 1027200500061 
 0.09639    49.91                                                 1027200500062 
 0.10120    49.23                                                 1027200500063 
 0.10638    48.57                                                 1027200500064 
 0.11113    48.01                                                 1027200500065 
 0.11710    48.50                                                 1027200500066 
 0.12356    46.83                                                 1027200500067 
 0.12953    46.00                                                 1027200500068 
 0.13595    42.64                                                 1027200500069 
 0.14286    43.78                                                 1027200500070 
 0.15030    45.93                                                 1027200500071 
 0.15696    43.74                                                 1027200500072 
 0.16407    42.77                                                 1027200500073 
 0.17326    39.93                                                 1027200500074 
 0.18152    43.46                                                 1027200500075 
 0.19038    42.03                                                 1027200500076 
 0.19991    40.53                                                 1027200500077 
 0.21018    43.67                                                 1027200500078 
 0.22126    44.19                                                 1027200500079 
 0.23076    42.45                                                 1027200500080 
 0.24353    41.04                                                 1027200500081 
 0.25738    39.64                                                 1027200500082 
 0.26934    42.45                                                 1027200500083 
 0.28214    41.99                                                 1027200500084 
 0.29589    37.71                                                 1027200500085 
 0.31066    37.44                                                 1027200500086 
 0.32657    41.46                                                 1027200500087 
 0.34373    43.44                                                 1027200500088 
 0.36228    44.90                                                 1027200500089 
 0.37719    49.09                                                 1027200500090 
 0.39305    56.38                                                 1027200500091 
 0.41579    84.64                                                 1027200500092 
 0.44057    64.95                                                 1027200500093 
 0.46063    53.95                                                 1027200500094 
 0.48210    46.22                                                 1027200500095 
 0.50511    42.91                                                 1027200500096 
 0.52980    39.70                                                 1027200500097 
 0.55635    51.76                                                 1027200500098 
 0.58494    41.33                                                 1027200500099 
 0.61580    44.97                                                 1027200500100 
 0.64917    43.39                                                 1027200500101 
 0.65033    44.13                                                 1027200500102 
 0.65324    51.85                                                 1027200500103 
 0.65617    48.15                                                 1027200500104 
 0.65912    40.05                                                 1027200500105 
 0.66209    57.53                                                 1027200500106 
 0.66508    47.88                                                 1027200500107 
 0.66809    56.60                                                 1027200500108 
 0.67112    48.96                                                 1027200500109 
 0.67418    50.03                                                 1027200500110 
 0.67725    47.72                                                 1027200500111 
 0.68034    51.66                                                 1027200500112 
 0.68346    60.85                                                 1027200500113 
 0.68660    50.31                                                 1027200500114 
 0.68975    53.59                                                 1027200500115 
 0.69293    56.20                                                 1027200500116 
 0.69614    53.25                                                 1027200500117 
 0.69936    55.05                                                 1027200500118 
 0.70261    48.26                                                 1027200500119 
 0.70588    48.06                                                 1027200500120 
 0.70917    54.01                                                 1027200500121 
 0.71249    54.23                                                 1027200500122 
 0.71583    54.85                                                 1027200500123 
 0.71919    55.50                                                 1027200500124 
 0.72258    50.92                                                 1027200500125 
 0.72599    52.87                                                 1027200500126 
 0.72942    55.70                                                 1027200500127 
 0.73288    57.96                                                 1027200500128 
 0.73636    54.03                                                 1027200500129 
 0.73987    61.83                                                 1027200500130 
 0.74341    53.57                                                 1027200500131 
 0.74696    58.88                                                 1027200500132 
 0.75055    62.69                                                 1027200500133 
 0.75416    57.12                                                 1027200500134 
 0.75780    62.95                                                 1027200500135 
 0.76146    63.46                                                 1027200500136 
 0.76515    64.07                                                 1027200500137 
 0.76887    63.11                                                 1027200500138 
 0.77261    59.97                                                 1027200500139 
 0.77638    60.29                                                 1027200500140 
 0.78018    63.65                                                 1027200500141 
 0.78401    62.86                                                 1027200500142 
 0.78786    66.12                                                 1027200500143 
 0.79174    67.69                                                 1027200500144 
 0.79566    65.87                                                 1027200500145 
 0.79960    75.31                                                 1027200500146 
 0.80357    67.07                                                 1027200500147 
 0.80757    64.51                                                 1027200500148 
 0.81160    69.49                                                 1027200500149 
 0.81566    78.51                                                 1027200500150 
 0.81975    72.09                                                 1027200500151 
 0.82387    74.17                                                 1027200500152 
 0.82803    73.87                                                 1027200500153 
 0.83221    71.30                                                 1027200500154 
 0.83643    76.03                                                 1027200500155 
 0.84068    76.22                                                 1027200500156 
 0.84496    77.46                                                 1027200500157 
 0.84927    84.38                                                 1027200500158 
 0.85362    76.38                                                 1027200500159 
 0.85800    82.94                                                 1027200500160 
 0.86241    80.95                                                 1027200500161 
 0.86686    88.12                                                 1027200500162 
 0.87134    87.46                                                 1027200500163 
 0.87586    92.22                                                 1027200500164 
 0.88041    95.49                                                 1027200500165 
 0.88500    96.02                                                 1027200500166 
 0.88963    100.61                                                1027200500167 
 0.89429    102.97                                                1027200500168 
 0.89898    104.98                                                1027200500169 
 0.90372    110.15                                                1027200500170 
 0.90849    118.98                                                1027200500171 
 0.91330    121.39                                                1027200500172 
 0.91815    130.94                                                1027200500173 
 0.92304    138.74                                                1027200500174 
 0.92796    151.21                                                1027200500175 
 0.93293    167.76                                                1027200500176 
 0.93793    187.58                                                1027200500177 
 0.94298    212.90                                                1027200500178 
 0.94807    235.51                                                1027200500179 
 0.95320    267.12                                                1027200500180 
 0.95837    302.94                                                1027200500181 
 0.96358    357.19                                                1027200500182 
 0.96883    396.20                                                1027200500183 
 0.97413    441.46                                                1027200500184 
 0.97947    468.17                                                1027200500185 
 0.98486    473.21                                                1027200500186 
 0.99029    462.16                                                1027200500187 
 0.99576    430.57                                                1027200500188 
 1.00128    389.39                                                1027200500189 
 1.00685    355.31                                                1027200500190 
 1.01246    310.72                                                1027200500191 
 1.01812    282.35                                                1027200500192 
 1.02383    258.08                                                1027200500193 
 1.02958    239.91                                                1027200500194 
 1.03539    221.68                                                1027200500195 
 1.04124    213.19                                                1027200500196 
 1.04714    205.85                                                1027200500197 
 1.05310    209.23                                                1027200500198 
 1.05910    201.00                                                1027200500199 
 1.06516    205.05                                                1027200500200 
 1.07127    206.28                                                1027200500201 
 1.07743    206.46                                                1027200500202 
 1.08365    210.83                                                1027200500203 
 1.08991    209.57                                                1027200500204 
 1.09624    218.04                                                1027200500205 
 1.10261    222.19                                                1027200500206 
 1.10905    236.29                                                1027200500207 
 1.11554    247.23                                                1027200500208 
 1.12209    250.34                                                1027200500209 
 1.12869    256.09                                                1027200500210 
 1.13535    279.40                                                1027200500211 
 1.14208    292.66                                                1027200500212 
 1.14886    308.49                                                1027200500213 
 1.15570    330.40                                                1027200500214 
 1.16261    351.94                                                1027200500215 
 1.16958    379.94                                                1027200500216 
 1.17661    400.95                                                1027200500217 
 1.18370    421.55                                                1027200500218 
 1.19086    459.54                                                1027200500219 
 1.19808    502.87                                                1027200500220 
 1.20537    543.49                                                1027200500221 
 1.21272    599.37                                                1027200500222 
 1.22015    664.36                                                1027200500223 
 1.22764    731.25                                                1027200500224 
 1.23520    840.42                                                1027200500225 
 1.24283    921.18                                                1027200500226 
 1.25053    1061.43                                               1027200500227 
 1.25831    1227.47                                               1027200500228 
 1.26615    1475.71                                               1027200500229 
 1.27407    1763.53                                               1027200500230 
 1.28206    2402.59                                               1027200500231 
 1.29013    2999.62                                               1027200500232 
 1.29828    3912.05                                               1027200500233 
 1.30650    5225.22                                               1027200500234 
 1.31480    6969.81                                               1027200500235 
 1.32318    9375.58                                               1027200500236 
 1.33165    11905.85                                              1027200500237 
 1.34019    14555.36                                              1027200500238 
 1.34882    16954.31                                              1027200500239 
 1.35752    17122.24                                              1027200500240 
 1.36632    15254.14                                              1027200500241 
 1.37520    13190.84                                              1027200500242 
 1.38416    10324.89                                              1027200500243 
 1.39322    7796.61                                               1027200500244 
 1.40236    6085.07                                               1027200500245 
 1.41160    4190.57                                               1027200500246 
 1.42092    3353.49                                               1027200500247 
 1.43034    2475.71                                               1027200500248 
 1.43985    1957.71                                               1027200500249 
 1.44946    1561.44                                               1027200500250 
 1.45916    1257.94                                               1027200500251 
 1.46896    1045.09                                               1027200500252 
 1.47886    846.36                                                1027200500253 
 1.48886    738.23                                                1027200500254 
 1.49896    633.71                                                1027200500255 
 1.50917    564.22                                                1027200500256 
 1.51948    505.09                                                1027200500257 
 1.52990    453.92                                                1027200500258 
 1.54042    407.67                                                1027200500259 
 1.55105    377.64                                                1027200500260 
 1.56180    342.09                                                1027200500261 
 1.57265    326.35                                                1027200500262 
 1.58362    311.47                                                1027200500263 
 1.59470    305.91                                                1027200500264 
 1.60591    298.43                                                1027200500265 
 1.61722    299.77                                                1027200500266 
 1.62866    307.53                                                1027200500267 
 1.64023    331.72                                                1027200500268 
 1.65191    364.93                                                1027200500269 
 1.66372    444.25                                                1027200500270 
 1.67566    561.14                                                1027200500271 
 1.68772    744.11                                                1027200500272 
 1.69992    1030.17                                               1027200500273 
 1.71225    1550.76                                               1027200500274 
 1.72471    2195.93                                               1027200500275 
 1.73731    2720.10                                               1027200500276 
 1.75005    2868.84                                               1027200500277 
 1.76293    2410.60                                               1027200500278 
 1.77596    1771.05                                               1027200500279 
 1.78912    1223.82                                               1027200500280 
 1.80244    811.57                                                1027200500281 
 1.81590    534.87                                                1027200500282 
 1.82952    378.38                                                1027200500283 
 1.84328    276.77                                                1027200500284 
 1.85721    227.37                                                1027200500285 
 1.87129    183.67                                                1027200500286 
 1.88554    154.04                                                1027200500287 
 1.89994    133.98                                                1027200500288 
 1.91452    113.17                                                1027200500289 
 1.92926    105.90                                                1027200500290 
 1.94417    94.33                                                 1027200500291 
 1.95926    88.16                                                 1027200500292 
 1.97452    81.80                                                 1027200500293 
 1.98996    70.23                                                 1027200500294 
 2.00558    65.24                                                 1027200500295 
 2.02139    63.35                                                 1027200500296 
 2.03738    59.18                                                 1027200500297 
 2.05357    57.96                                                 1027200500298 
 2.06995    55.23                                                 1027200500299 
 2.08652    49.56                                                 1027200500300 
 2.10330    49.53                                                 1027200500301 
 2.12028    45.25                                                 1027200500302 
 2.13747    45.26                                                 1027200500303 
 2.15486    44.38                                                 1027200500304 
 2.17247    42.59                                                 1027200500305 
 2.19029    38.43                                                 1027200500306 
 2.20834    39.65                                                 1027200500307 
 2.22661    34.95                                                 1027200500308 
 2.24511    35.79                                                 1027200500309 
 2.26384    36.57                                                 1027200500310 
 2.28280    35.02                                                 1027200500311 
 2.30200    30.55                                                 1027200500312 
 2.32145    38.28                                                 1027200500313 
 2.34114    32.85                                                 1027200500314 
 2.36109    30.39                                                 1027200500315 
 2.38129    30.30                                                 1027200500316 
 2.40175    28.06                                                 1027200500317 
 2.42248    27.57                                                 1027200500318 
 2.44348    31.35                                                 1027200500319 
 2.46475    27.71                                                 1027200500320 
 2.48630    28.14                                                 1027200500321 
 2.50813    25.10                                                 1027200500322 
 2.53025    26.55                                                 1027200500323 
 2.55267    28.83                                                 1027200500324 
 2.57538    25.93                                                 1027200500325 
 2.59840    24.76                                                 1027200500326 
 2.62173    23.20                                                 1027200500327 
 2.64538    22.92                                                 1027200500328 
 2.66935    23.04                                                 1027200500329 
 2.69364    24.91                                                 1027200500330 
 2.71827    25.60                                                 1027200500331 
 2.74324    27.54                                                 1027200500332 
 2.76855    22.93                                                 1027200500333 
 2.79421    22.48                                                 1027200500334 
 2.82024    23.82                                                 1027200500335 
 2.84662    20.18                                                 1027200500336 
 2.87338    24.38                                                 1027200500337 
 2.90052    25.02                                                 1027200500338 
 2.92805    24.53                                                 1027200500339 
 2.95597    24.59                                                 1027200500340 
 2.98429    26.25                                                 1027200500341 
 3.01302    29.39                                                 1027200500342 
 3.04216    30.62                                                 1027200500343 
 3.07174    43.14                                                 1027200500344 
 3.10174    65.13                                                 1027200500345 
 3.13219    90.67                                                 1027200500346 
 3.16308    82.12                                                 1027200500347 
 3.19444    66.74                                                 1027200500348 
 3.22626    53.24                                                 1027200500349 
 3.25857    63.28                                                 1027200500350 
 3.29136    107.15                                                1027200500351 
 3.32465    168.15                                                1027200500352 
 3.35844    372.76                                                1027200500353 
 3.39275    842.89                                                1027200500354 
 3.42759    1293.31                                               1027200500355 
 3.46298    959.03                                                1027200500356 
 3.49891    429.63                                                1027200500357 
 3.53540    172.21                                                1027200500358 
 3.57247    90.05                                                 1027200500359 
 3.61012    54.68                                                 1027200500360 
 3.64838    45.89                                                 1027200500361 
 3.68724    34.25                                                 1027200500362 
 3.72673    36.05                                                 1027200500363 
 3.76686    37.06                                                 1027200500364 
 3.80764    54.52                                                 1027200500365 
 3.84908    67.72                                                 1027200500366 
 3.89120    53.02                                                 1027200500367 
 3.93402    35.46                                                 1027200500368 
 3.97755    25.09                                                 1027200500369 
 4.02181    21.20                                                 1027200500370 
 4.06680    20.40                                                 1027200500371 
 4.11256    17.23                                                 1027200500372 
 4.15910    17.77                                                 1027200500373 
 4.20643    19.50                                                 1027200500374 
 4.25457    16.79                                                 1027200500375 
 4.30354    19.23                                                 1027200500376 
 4.35337    19.26                                                 1027200500377 
 4.39768    18.44                                                 1027200500378 
 4.44915    20.97                                                 1027200500379 
 4.50153    17.62                                                 1027200500380 
 4.55484    20.15                                                 1027200500381 
 4.60911    20.06                                                 1027200500382 
 4.66435    25.28                                                 1027200500383 
 4.72059    24.58                                                 1027200500384 
 4.77785    21.67                                                 1027200500385 
 4.83616    27.39                                                 1027200500386 
 4.87315    30.91                                                 1027200500387 
 4.88806    31.36                                                 1027200500388 
 4.90304    31.77                                                 1027200500389 
 4.91809    45.46                                                 1027200500390 
 4.93322    45.01                                                 1027200500391 
 4.94841    44.06                                                 1027200500392 
 4.96367    54.14                                                 1027200500393 
 4.97900    64.43                                                 1027200500394 
 4.99055    76.56                                                 1027200500395 
 4.99826    81.69                                                 1027200500396 
 5.00600    102.66                                                1027200500397 
 5.01376    102.80                                                1027200500398 
 5.02153    126.39                                                1027200500399 
 5.02932    136.97                                                1027200500400 
 5.03713    170.53                                                1027200500401 
 5.04496    179.49                                                1027200500402 
 5.05280    228.41                                                1027200500403 
 5.06067    288.70                                                1027200500404 
 5.06855    317.52                                                1027200500405 
 5.07645    381.93                                                1027200500406 
 5.08437    466.30                                                1027200500407 
 5.09231    548.85                                                1027200500408 
 5.10027    611.30                                                1027200500409 
 5.10426    696.25                                                1027200500410 
 5.11224    836.04                                                1027200500411 
 5.12025    810.90                                                1027200500412 
 5.12827    810.44                                                1027200500413 
 5.13631    901.81                                                1027200500414 
 5.14437    920.96                                                1027200500415 
 5.15245    786.73                                                1027200500416 
 5.16055    745.63                                                1027200500417 
 5.16866    668.72                                                1027200500418 
 5.17680    590.15                                                1027200500419 
 5.18496    520.55                                                1027200500420 
 5.19313    427.75                                                1027200500421 
 5.20133    351.48                                                1027200500422 
 5.20542    280.04                                                1027200500423 
 5.21365    235.53                                                1027200500424 
 5.22189    195.82                                                1027200500425 
 5.23015    171.31                                                1027200500426 
 5.23844    148.67                                                1027200500427 
 5.24674    106.90                                                1027200500428 
 5.25506    99.57                                                 1027200500429 
 5.26340    68.82                                                 1027200500430 
 5.27595    77.46                                                 1027200500431 
 5.29275    49.12                                                 1027200500432 
 5.30963    46.05                                                 1027200500433 
 5.32660    41.51                                                 1027200500434 
 5.34364    44.70                                                 1027200500435 
 5.36077    31.55                                                 1027200500436 
 5.37798    40.34                                                 1027200500437 
 5.39527    28.94                                                 1027200500438 
 5.41265    25.40                                                 1027200500439 
 5.43011    27.05                                                 1027200500440 
 5.44765    27.20                                                 1027200500441 
 5.48300    27.11                                                 1027200500442 
 5.53667    21.37                                                 1027200500443 
 5.59112    23.42                                                 1027200500444 
 5.64639    20.29                                                 1027200500445 
 5.70248    18.96                                                 1027200500446 
 5.75941    19.67                                                 1027200500447 
 5.81720    14.86                                                 1027200500448 
 5.87586    19.59                                                 1027200500449 
 5.93541    16.80                                                 1027200500450 
 5.99587    18.43                                                 1027200500451 
 6.05726    21.68                                                 1027200500452 
 6.11960    23.18                                                 1027200500453 
 6.16170    21.89                                                 1027200500454 
 6.18291    25.57                                                 1027200500455 
 6.20423    26.75                                                 1027200500456 
 6.22566    29.09                                                 1027200500457 
 6.24720    33.64                                                 1027200500458 
 6.26885    43.55                                                 1027200500459 
 6.29062    41.05                                                 1027200500460 
 6.31250    46.85                                                 1027200500461 
 6.33450    65.49                                                 1027200500462 
 6.35661    75.86                                                 1027200500463 
 6.37326    91.48                                                 1027200500464 
 6.38441    104.19                                                1027200500465 
 6.39558    113.30                                                1027200500466 
 6.40678    136.10                                                1027200500467 
 6.41801    155.81                                                1027200500468 
 6.42927    186.87                                                1027200500469 
 6.44056    216.57                                                1027200500470 
 6.45188    271.28                                                1027200500471 
 6.46323    324.90                                                1027200500472 
 6.46892    366.42                                                1027200500473 
 6.48031    514.57                                                1027200500474 
 6.49174    601.05                                                1027200500475 
 6.50319    813.75                                                1027200500476 
 6.51467    1035.65                                               1027200500477 
 6.52619    1269.13                                               1027200500478 
 6.53774    1430.60                                               1027200500479 
 6.54931    1693.21                                               1027200500480 
 6.56092    1707.65                                               1027200500481 
 6.57256    1707.25                                               1027200500482 
 6.58423    1727.82                                               1027200500483 
 6.59593    1577.41                                               1027200500484 
 6.60766    1388.74                                               1027200500485 
 6.61942    1169.76                                               1027200500486 
 6.63121    961.76                                                1027200500487 
 6.64304    841.10                                                1027200500488 
 6.65490    668.41                                                1027200500489 
 6.66679    479.23                                                1027200500490 
 6.67871    372.06                                                1027200500491 
 6.68467    240.91                                                1027200500492 
 6.69664    192.75                                                1027200500493 
 6.70864    176.03                                                1027200500494 
 6.72068    129.58                                                1027200500495 
 6.73274    110.23                                                1027200500496 
 6.74484    87.76                                                 1027200500497 
 6.75697    101.11                                                1027200500498 
 6.76913    83.04                                                 1027200500499 
 6.78133    64.83                                                 1027200500500 
 6.79356    60.23                                                 1027200500501 
 6.80582    62.01                                                 1027200500502 
 6.81812    60.41                                                 1027200500503 
 6.83045    57.56                                                 1027200500504 
 6.84281    42.41                                                 1027200500505 
 6.85521    50.93                                                 1027200500506 
 6.86764    53.65                                                 1027200500507 
 6.88010    49.84                                                 1027200500508 
 6.89260    40.03                                                 1027200500509 
 6.90513    53.66                                                 1027200500510 
 6.91770    48.32                                                 1027200500511 
 6.93030    40.86                                                 1027200500512 
 6.94293    46.02                                                 1027200500513 
 6.95560    53.02                                                 1027200500514 
 6.96831    57.95                                                 1027200500515 
 6.98105    80.22                                                 1027200500516 
 6.99382    65.25                                                 1027200500517 
 7.00663    90.47                                                 1027200500518 
 7.01947    102.57                                                1027200500519 
 7.03235    114.90                                                1027200500520 
 7.04527    125.58                                                1027200500521 
 7.05822    135.29                                                1027200500522 
 7.07121    147.94                                                1027200500523 
 7.08423    139.55                                                1027200500524 
 7.09729    132.34                                                1027200500525 
 7.11038    112.89                                                1027200500526 
 7.12351    106.59                                                1027200500527 
 7.13668    97.92                                                 1027200500528 
 7.14989    75.01                                                 1027200500529 
 7.16313    56.45                                                 1027200500530 
 7.17640    59.81                                                 1027200500531 
 7.18972    50.12                                                 1027200500532 
 7.21646    34.13                                                 1027200500533 
 7.25685    30.52                                                 1027200500534 
 7.29758    27.29                                                 1027200500535 
 7.33865    18.69                                                 1027200500536 
 7.38007    30.81                                                 1027200500537 
 7.42185    31.87                                                 1027200500538 
 7.46398    31.94                                                 1027200500539 
 7.50647    35.79                                                 1027200500540 
 7.54932    43.48                                                 1027200500541 
 7.57809    61.83                                                 1027200500542 
 7.59254    55.97                                                 1027200500543 
 7.60703    55.00                                                 1027200500544 
 7.62156    74.50                                                 1027200500545 
 7.63614    63.94                                                 1027200500546 
 7.65075    88.60                                                 1027200500547 
 7.66541    105.86                                                1027200500548 
 7.68011    108.87                                                1027200500549 
 7.69485    128.66                                                1027200500550 
 7.70963    155.29                                                1027200500551 
 7.72446    184.63                                                1027200500552 
 7.73933    231.63                                                1027200500553 
 7.75424    298.15                                                1027200500554 
 7.76919    371.24                                                1027200500555 
 7.78419    479.65                                                1027200500556 
 7.79923    608.20                                                1027200500557 
 7.80678    811.78                                                1027200500558 
 7.82189    1117.59                                               1027200500559 
 7.83704    1381.00                                               1027200500560 
 7.85223    1620.43                                               1027200500561 
 7.86747    1746.53                                               1027200500562 
 7.88276    1849.14                                               1027200500563 
 7.89808    1736.50                                               1027200500564 
 7.91346    1630.12                                               1027200500565 
 7.92888    1342.85                                               1027200500566 
 7.94434    1133.56                                               1027200500567 
 7.95985    873.22                                                1027200500568 
 7.97540    693.14                                                1027200500569 
 7.99100    506.10                                                1027200500570 
 7.99881    278.68                                                1027200500571 
 8.01448    230.22                                                1027200500572 
 8.03020    174.62                                                1027200500573 
 8.04596    147.28                                                1027200500574 
 8.06176    106.33                                                1027200500575 
 8.07762    108.10                                                1027200500576 
 8.09352    72.45                                                 1027200500577 
 8.10947    73.30                                                 1027200500578 
 8.12546    63.17                                                 1027200500579 
 8.14150    62.18                                                 1027200500580 
 8.15759    46.68                                                 1027200500581 
 8.18992    40.07                                                 1027200500582 
 8.23876    39.95                                                 1027200500583 
 8.28805    33.71                                                 1027200500584 
 8.33778    38.80                                                 1027200500585 
 8.38795    35.46                                                 1027200500586 
 8.43858    41.51                                                 1027200500587 
 8.48968    31.44                                                 1027200500588 
 8.54123    32.31                                                 1027200500589 
 8.57586    24.84                                                 1027200500590 
 8.59326    26.88                                                 1027200500591 
 8.61071    37.72                                                 1027200500592 
 8.62821    44.67                                                 1027200500593 
 8.64576    48.15                                                 1027200500594 
 8.66337    54.13                                                 1027200500595 
 8.68104    69.16                                                 1027200500596 
 8.69875    85.36                                                 1027200500597 
 8.71652    100.95                                                1027200500598 
 8.73435    129.21                                                1027200500599 
 8.75223    141.51                                                1027200500600 
 8.77016    173.62                                                1027200500601 
 8.78815    159.02                                                1027200500602 
 8.80620    157.45                                                1027200500603 
 8.82430    132.04                                                1027200500604 
 8.84246    117.86                                                1027200500605 
 8.86067    95.82                                                 1027200500606 
 8.87894    70.90                                                 1027200500607 
 8.89726    59.15                                                 1027200500608 
 8.91565    42.69                                                 1027200500609 
 8.93409    33.42                                                 1027200500610 
 8.97114    30.62                                                 1027200500611 
 9.02715    22.89                                                 1027200500612 
 9.08369    27.49                                                 1027200500613 
 9.12167    26.06                                                 1027200500614 
 9.14076    33.58                                                 1027200500615 
 9.15990    25.87                                                 1027200500616 
 9.17910    49.58                                                 1027200500617 
 9.19837    48.52                                                 1027200500618 
 9.21769    66.22                                                 1027200500619 
 9.23708    89.83                                                 1027200500620 
 9.25652    101.27                                                1027200500621 
 9.27603    129.30                                                1027200500622 
 9.29560    171.57                                                1027200500623 
 9.31523    177.16                                                1027200500624 
 9.33493    179.94                                                1027200500625 
 9.35468    165.24                                                1027200500626 
 9.37450    139.24                                                1027200500627 
 9.39438    123.45                                                1027200500628 
 9.41433    78.09                                                 1027200500629 
 9.43434    80.65                                                 1027200500630 
 9.45441    44.07                                                 1027200500631 
 9.47455    38.26                                                 1027200500632 
 9.49475    29.64                                                 1027200500633 
 9.51502    25.63                                                 1027200500634 
 9.55574    23.68                                                 1027200500635 
 9.61733    23.75                                                 1027200500636 
 9.67951    14.50                                                 1027200500637 
 9.74229    16.27                                                 1027200500638 
 9.80569    17.39                                                 1027200500639 
 9.86971    21.02                                                 1027200500640 
 9.93436    17.75                                                 1027200500641 
 9.99965    27.13                                                 1027200500642 
 10.06558   28.01                                                 1027200500643 
 10.10990   41.23                                                 1027200500644 
 10.13216   56.17                                                 1027200500645 
 10.15451   65.51                                                 1027200500646 
 10.17692   90.30                                                 1027200500647 
 10.19941   125.98                                                1027200500648 
 10.22198   165.96                                                1027200500649 
 10.24462   232.67                                                1027200500650 
 10.26733   297.16                                                1027200500651 
 10.29012   352.09                                                1027200500652 
 10.31299   382.56                                                1027200500653 
 10.33593   385.07                                                1027200500654 
 10.35896   345.06                                                1027200500655 
 10.38205   289.45                                                1027200500656 
 10.40523   229.20                                                1027200500657 
 10.42848   170.83                                                1027200500658 
 10.45181   124.69                                                1027200500659 
 10.47522   80.28                                                 1027200500660 
 10.49870   64.34                                                 1027200500661 
 10.52227   52.95                                                 1027200500662 
 10.54591   37.68                                                 1027200500663 
 10.59345   31.38                                                 1027200500664 
 10.66535   30.93                                                 1027200500665 
 10.73798   18.44                                                 1027200500666 
 10.81136   27.97                                                 1027200500667 
 10.88550   32.14                                                 1027200500668 
 10.96040   26.20                                                 1027200500669 
 11.01076   30.46                                                 1027200500670 
 11.03607   30.75                                                 1027200500671 
 11.06147   33.09                                                 1027200500672 
 11.08696   30.99                                                 1027200500673 
 11.11253   44.10                                                 1027200500674 
 11.13820   60.99                                                 1027200500675 
 11.16395   79.10                                                 1027200500676 
 11.18979   108.88                                                1027200500677 
 11.21573   140.43                                                1027200500678 
 11.24175   182.19                                                1027200500679 
 11.26786   224.92                                                1027200500680 
 11.29407   241.00                                                1027200500681 
 11.32036   213.59                                                1027200500682 
 11.34675   179.27                                                1027200500683 
 11.37323   156.96                                                1027200500684 
 11.39980   102.25                                                1027200500685 
 11.42647   82.70                                                 1027200500686 
 11.45323   69.37                                                 1027200500687 
 11.48008   51.76                                                 1027200500688 
 11.50703   38.21                                                 1027200500689 
 11.53408   32.94                                                 1027200500690 
 11.56121   40.35                                                 1027200500691 
 11.58845   56.04                                                 1027200500692 
 11.61578   60.60                                                 1027200500693 
 11.64321   70.85                                                 1027200500694 
 11.67073   92.16                                                 1027200500695 
 11.69836   109.42                                                1027200500696 
 11.72608   86.31                                                 1027200500697 
 11.75390   87.52                                                 1027200500698 
 11.78182   70.96                                                 1027200500699 
 11.80984   57.74                                                 1027200500700 
 11.83795   50.92                                                 1027200500701 
 11.86617   45.56                                                 1027200500702 
 11.89449   32.08                                                 1027200500703 
 11.92292   32.28                                                 1027200500704 
 11.95144   32.26                                                 1027200500705 
 11.98007   40.54                                                 1027200500706 
 12.00879   59.34                                                 1027200500707 
 12.03763   75.76                                                 1027200500708 
 12.06656   101.29                                                1027200500709 
 12.09560   126.01                                                1027200500710 
 12.12475   118.28                                                1027200500711 
 12.15400   123.82                                                1027200500712 
 12.18336   132.69                                                1027200500713 
 12.21282   105.78                                                1027200500714 
 12.24240   83.49                                                 1027200500715 
 12.27207   66.65                                                 1027200500716 
 12.30186   51.03                                                 1027200500717 
 12.33176   38.05                                                 1027200500718 
 12.36176   34.69                                                 1027200500719 
 12.39187   32.59                                                 1027200500720 
 12.42210   37.22                                                 1027200500721 
 12.45243   21.17                                                 1027200500722 
 12.48288   37.71                                                 1027200500723 
 12.51344   39.15                                                 1027200500724 
 12.54411   45.96                                                 1027200500725 
 12.57489   59.71                                                 1027200500726 
 12.60579   72.29                                                 1027200500727 
 12.63680   85.39                                                 1027200500728 
 12.66792   110.81                                                1027200500729 
 12.69916   147.49                                                1027200500730 
 12.73052   216.51                                                1027200500731 
 12.74625   312.86                                                1027200500732 
 12.77778   403.90                                                1027200500733 
 12.80943   631.56                                                1027200500734 
 12.84120   919.22                                                1027200500735 
 12.87308   1250.45                                               1027200500736 
 12.90508   1455.32                                               1027200500737 
 12.93720   1444.81                                               1027200500738 
 12.96945   1277.90                                               1027200500739 
 13.00181   1050.58                                               1027200500740 
 13.03429   849.04                                                1027200500741 
 13.06690   717.46                                                1027200500742 
 13.09963   697.94                                                1027200500743 
 13.13248   784.95                                                1027200500744 
 13.16546   821.05                                                1027200500745 
 13.19856   894.34                                                1027200500746 
 13.23178   774.08                                                1027200500747 
 13.26513   665.61                                                1027200500748 
 13.29861   468.40                                                1027200500749 
 13.33221   311.01                                                1027200500750 
 13.36594   185.34                                                1027200500751 
 13.38284   106.65                                                1027200500752 
 13.41677   78.61                                                 1027200500753 
 13.45082   64.65                                                 1027200500754 
 13.48500   51.22                                                 1027200500755 
 13.51931   40.32                                                 1027200500756 
 13.58833   37.91                                                 1027200500757 
 13.69286   31.39                                                 1027200500758 
 13.79860   23.59                                                 1027200500759 
 13.90556   18.08                                                 1027200500760 
 14.01377   20.49                                                 1027200500761 
 14.12326   16.26                                                 1027200500762 
 14.23403   19.21                                                 1027200500763 
 14.34611   21.48                                                 1027200500764 
 14.45951   12.69                                                 1027200500765 
 14.57427   24.10                                                 1027200500766 
 14.69040   21.78                                                 1027200500767 
 14.80792   25.28                                                 1027200500768 
 14.88706   19.15                                                 1027200500769 
 14.92686   31.80                                                 1027200500770 
 14.96683   40.10                                                 1027200500771 
 15.00695   38.88                                                 1027200500772 
 15.04724   50.26                                                 1027200500773 
 15.08769   65.13                                                 1027200500774 
 15.12830   82.31                                                 1027200500775 
 15.16908   100.22                                                1027200500776 
 15.21002   128.68                                                1027200500777 
 15.25113   153.11                                                1027200500778 
 15.29240   217.43                                                1027200500779 
 15.31312   234.41                                                1027200500780 
 15.35465   361.50                                                1027200500781 
 15.39634   486.74                                                1027200500782 
 15.43821   573.02                                                1027200500783 
 15.48025   614.93                                                1027200500784 
 15.52246   513.26                                                1027200500785 
 15.56484   373.74                                                1027200500786 
 15.60739   218.98                                                1027200500787 
 15.62872   107.79                                                1027200500788 
 15.67154   79.21                                                 1027200500789 
 15.71453   55.83                                                 1027200500790 
 15.75771   46.34                                                 1027200500791 
 15.80106   34.83                                                 1027200500792 
 15.84459   31.22                                                 1027200500793 
 15.88829   36.32                                                 1027200500794 
 15.93219   38.20                                                 1027200500795 
 15.97626   45.28                                                 1027200500796 
 16.02051   49.89                                                 1027200500797 
 16.06494   75.62                                                 1027200500798 
 16.10957   114.63                                                1027200500799 
 16.15439   165.33                                                1027200500800 
 16.19939   211.44                                                1027200500801 
 16.24457   228.41                                                1027200500802 
 16.28995   206.50                                                1027200500803 
 16.33551   159.49                                                1027200500804 
 16.38127   132.30                                                1027200500805 
 16.42722   105.06                                                1027200500806 
 16.47336   80.86                                                 1027200500807 
 16.51970   81.08                                                 1027200500808 
 16.56624   102.16                                                1027200500809 
 16.61296   96.85                                                 1027200500810 
 16.65990   88.77                                                 1027200500811 
 16.70702   66.27                                                 1027200500812 
 16.75435   60.23                                                 1027200500813 
 16.80188   34.45                                                 1027200500814 
 16.84961   28.59                                                 1027200500815 
 16.92160   26.68                                                 1027200500816 
 17.01830   11.38                                                 1027200500817 
 17.11581   17.81                                                 1027200500818 
 17.21419   16.80                                                 1027200500819 
 17.31340   13.76                                                 1027200500820 
 17.41348   21.06                                                 1027200500821 
 17.51442   21.43                                                 1027200500822 
 17.59071   25.67                                                 1027200500823 
 17.64185   19.79                                                 1027200500824 
 17.69321   37.55                                                 1027200500825 
 17.74480   36.19                                                 1027200500826 
 17.79660   66.72                                                 1027200500827 
 17.84863   81.79                                                 1027200500828 
 17.90089   93.21                                                 1027200500829 
 17.95340   82.22                                                 1027200500830 
 18.00612   68.42                                                 1027200500831 
 18.05908   46.18                                                 1027200500832 
 18.11227   41.95                                                 1027200500833 
 18.16571   42.66                                                 1027200500834 
 18.21938   24.13                                                 1027200500835 
 18.27327   33.09                                                 1027200500836 
 18.32742   25.74                                                 1027200500837 
 18.38181   17.31                                                 1027200500838 
 18.43643   18.51                                                 1027200500839 
 18.49130   25.41                                                 1027200500840 
 18.57407   14.73                                                 1027200500841 
 18.68529   8.89                                                  1027200500842 
 18.79750   11.89                                                 1027200500843 
 18.91075   11.85                                                 1027200500844 
 19.02501   16.10                                                 1027200500845 
 19.14032   19.71                                                 1027200500846 
 19.22748   22.20                                                 1027200500847 
 19.28592   16.45                                                 1027200500848 
 19.34464   31.89                                                 1027200500849 
 19.40361   46.41                                                 1027200500850 
 19.46286   65.10                                                 1027200500851 
 19.52237   84.13                                                 1027200500852 
 19.58217   83.52                                                 1027200500853 
 19.64224   74.07                                                 1027200500854 
 19.70258   54.67                                                 1027200500855 
 19.76320   46.71                                                 1027200500856 
 19.82411   41.14                                                 1027200500857 
 19.88530   40.07                                                 1027200500858 
 19.94676   52.19                                                 1027200500859 
 20.00851   40.11                                                 1027200500860 
 20.07056   39.17                                                 1027200500861 
 20.13289   24.13                                                 1027200500862 
 20.19551   17.63                                                 1027200500863 
 20.25842   19.06                                                 1027200500864 
 20.32164   26.36                                                 1027200500865 
 20.38515   25.25                                                 1027200500866 
 20.44894   20.91                                                 1027200500867 
 20.51305   19.78                                                 1027200500868 
 20.57745   24.94                                                 1027200500869 
 20.64217   29.77                                                 1027200500870 
 20.70717   43.59                                                 1027200500871 
 20.77249   55.66                                                 1027200500872 
 20.83813   81.96                                                 1027200500873 
 20.90407   129.42                                                1027200500874 
 20.93719   133.69                                                1027200500875 
 21.00360   229.20                                                1027200500876 
 21.07033   302.48                                                1027200500877 
 21.13738   384.97                                                1027200500878 
 21.20475   332.18                                                1027200500879 
 21.27245   290.76                                                1027200500880 
 21.34046   185.77                                                1027200500881 
 21.40881   121.57                                                1027200500882 
 21.44307   53.29                                                 1027200500883 
 21.51192   40.68                                                 1027200500884 
 21.58109   27.63                                                 1027200500885 
 21.65059   39.58                                                 1027200500886 
 21.72043   38.62                                                 1027200500887 
 21.79060   45.50                                                 1027200500888 
 21.86113   51.01                                                 1027200500889 
 21.93199   50.43                                                 1027200500890 
 22.00320   54.12                                                 1027200500891 
 22.07475   49.53                                                 1027200500892 
 22.14665   33.97                                                 1027200500893 
 22.21892   36.90                                                 1027200500894 
 22.29152   28.12                                                 1027200500895 
 22.36449   47.45                                                 1027200500896 
 22.40114   60.40                                                 1027200500897 
 22.47465   70.36                                                 1027200500898 
 22.54852   155.59                                                1027200500899 
 22.62275   162.30                                                1027200500900 
 22.69735   306.59                                                1027200500901 
 22.77232   340.01                                                1027200500902 
 22.84766   356.47                                                1027200500903 
 22.92338   273.95                                                1027200500904 
 22.99947   183.73                                                1027200500905 
 23.07595   79.91                                                 1027200500906 
 23.15277   33.75                                                 1027200500907 
 23.30765   23.89                                                 1027200500908 
 23.46407   16.74                                                 1027200500909 
 23.62207   21.86                                                 1027200500910 
 23.78168   22.16                                                 1027200500911 
 23.90245   25.99                                                 1027200500912 
 23.98347   25.21                                                 1027200500913 
 24.06491   26.98                                                 1027200500914 
 24.14677   33.40                                                 1027200500915 
 24.22905   61.66                                                 1027200500916 
 24.31174   93.65                                                 1027200500917 
 24.39485   123.73                                                1027200500918 
 24.47839   167.44                                                1027200500919 
 24.56236   158.57                                                1027200500920 
 24.64677   114.77                                                1027200500921 
 24.73161   75.84                                                 1027200500922 
 24.81689   40.75                                                 1027200500923 
 24.90262   40.60                                                 1027200500924 
 24.98878   15.77                                                 1027200500925 
 25.07541   27.14                                                 1027200500926 
 25.16248   20.16                                                 1027200500927 
 25.25000   28.52                                                 1027200500928 
 25.33798   38.85                                                 1027200500929 
 25.42642   45.72                                                 1027200500930 
 25.51532   35.57                                                 1027200500931 
 25.60469   28.02                                                 1027200500932 
ENDDATA            924          0                                 1027200500933 
ENDSUBENT          932          0                                 1027200599999 
ENDENTRY             5          0                                 1027299999999 
