ENTRY            10302   20020823                             00001030200000001 
SUBENT        10302001   20020823                             00001030200100001 
BIB                 10         20                                 1030200100002 
INSTITUTE  (1USAORL)                                              1030200100003 
REFERENCE  (J,NSE,55,203,197410)                                  1030200100004 
           (P,ORNL-4800,197208) Description of facility           1030200100005 
AUTHOR     (R.B.Perez,G.De Saussure,E.G.Silver,R.W.Ingle,         1030200100006 
           H.Weaver)                                              1030200100007 
TITLE      Measurement of the Fission Cross Section of Uranium-2351030200100008 
            for Incident Neutrons with Energies Between 2 and     1030200100009 
            100 keV.                                              1030200100010 
FACILITY   (LINAC) Oak Ridge Electron Linac (ORELA)               1030200100011 
INC-SOURCE (PHOTO) Electrons on Ta target                         1030200100012 
METHOD     (TOF) Time-of-flight. 150-m flight path.               1030200100013 
MONITOR    (5-B-0(N,A),,SIG) ENDF/B-III                           1030200100014 
           (3-LI-6(N,T)2-HE-4,,SIG) ENDF/B-III                    1030200100015 
STATUS     (PRELM) Preliminary                                    1030200100016 
           (APRVD) Approved by author                             1030200100017 
           Tabulated data received from R.Perez, December 1972.   1030200100018 
HISTORY    (19730116C) VM                                         1030200100019 
           (19830118A) BIB update. Converted to REACTION          1030200100020 
                       formalism.                                 1030200100021 
           (20020823A) Updated to new date formats, lower case.   1030200100022 
ENDBIB              20          0                                 1030200100023 
NOCOMMON             0          0                                 1030200100024 
ENDSUBENT           23          0                                 1030200199999 
SUBENT        10302002   20020823                             00001030200200001 
BIB                  2          9                                 1030200200002 
REACTION   (92-U-235(N,F),,SIG,,AV)                               1030200200003 
ERR-ANALYS (ERR-T) Total estimated uncertainty. Error includes    1030200200004 
            . statistical uncertainty (0.0045(E/sigma*delta E)    1030200200005 
            . background uncertainty in coincidence rate (0.5%)   1030200200006 
            . uncertainty in relative efficiency for detecting    1030200200007 
              fission (4.0%)                                      1030200200008 
            . uncertainty in relative efficiency of the neutron   1030200200009 
              monitor and standard cross sections (5.0%)          1030200200010 
            . uncertainty in normalization (3.0%)                 1030200200011 
ENDBIB               9          0                                 1030200200012 
COMMON               1          3                                 1030200200013 
ERR-T                                                             1030200200014 
PER-CENT                                                          1030200200015 
 7.0                                                              1030200200016 
ENDCOMMON            3          0                                 1030200200017 
DATA                 3       1960                                 1030200200018 
EN-MIN     EN-MAX     DATA                                        1030200200019 
EV         EV         B                                           1030200200020 
 2000.      2050.      4.520                                      1030200200021 
 2050.      2100.      6.228                                      1030200200022 
 2100.      2150.      5.504                                      1030200200023 
 2150.      2200.      4.823                                      1030200200024 
 2200.      2250.      6.116                                      1030200200025 
 2250.      2300.      5.791                                      1030200200026 
 2300.      2350.      6.308                                      1030200200027 
 2350.      2400.      4.630                                      1030200200028 
 2400.      2450.      6.858                                      1030200200029 
 2450.      2500.      6.081                                      1030200200030 
 2500.      2550.      5.869                                      1030200200031 
 2550.      2600.      6.057                                      1030200200032 
 2600.      2650.      5.321                                      1030200200033 
 2650.      2700.      4.145                                      1030200200034 
 2700.      2750.      5.060                                      1030200200035 
 2750.      2800.      6.062                                      1030200200036 
 2800.      2850.      4.661                                      1030200200037 
 2850.      2900.      5.374                                      1030200200038 
 2900.      2950.      5.551                                      1030200200039 
 2950.      3000.      4.007                                      1030200200040 
 3000.      3050.      5.921                                      1030200200041 
 3050.      3100.      5.555                                      1030200200042 
 3100.      3150.      5.034                                      1030200200043 
 3150.      3200.      4.713                                      1030200200044 
 3200.      3250.      4.786                                      1030200200045 
 3250.      3300.      5.482                                      1030200200046 
 3300.      3350.      5.928                                      1030200200047 
 3350.      3400.      3.739                                      1030200200048 
 3400.      3450.      4.905                                      1030200200049 
 3450.      3500.      4.664                                      1030200200050 
 3500.      3550.      5.331                                      1030200200051 
 3550.      3600.      4.835                                      1030200200052 
 3600.      3650.      5.210                                      1030200200053 
 3650.      3700.      4.060                                      1030200200054 
 3700.      3750.      4.160                                      1030200200055 
 3750.      3800.      5.119                                      1030200200056 
 3800.      3850.      5.407                                      1030200200057 
 3850.      3900.      3.954                                      1030200200058 
 3900.      3950.      4.270                                      1030200200059 
 3950.      4000.      5.694                                      1030200200060 
 4000.      4050.      4.699                                      1030200200061 
 4050.      4100.      4.139                                      1030200200062 
 4100.      4150.      4.059                                      1030200200063 
 4150.      4200.      4.467                                      1030200200064 
 4200.      4250.      5.144                                      1030200200065 
 4250.      4300.      5.865                                      1030200200066 
 4300.      4350.      4.446                                      1030200200067 
 4350.      4400.      5.170                                      1030200200068 
 4400.      4450.      4.227                                      1030200200069 
 4450.      4500.      5.544                                      1030200200070 
 4500.      4550.      4.636                                      1030200200071 
 4550.      4600.      4.160                                      1030200200072 
 4600.      4650.      4.168                                      1030200200073 
 4650.      4700.      4.228                                      1030200200074 
 4700.      4750.      3.714                                      1030200200075 
 4750.      4800.      3.954                                      1030200200076 
 4800.      4850.      3.423                                      1030200200077 
 4850.      4900.      4.921                                      1030200200078 
 4900.      4950.      3.569                                      1030200200079 
 4950.      5000.      3.375                                      1030200200080 
 5000.      5050.      4.616                                      1030200200081 
 5050.      5100.      3.961                                      1030200200082 
 5100.      5150.      3.757                                      1030200200083 
 5150.      5200.      3.665                                      1030200200084 
 5200.      5250.      3.768                                      1030200200085 
 5250.      5300.      3.835                                      1030200200086 
 5300.      5350.      4.299                                      1030200200087 
 5350.      5400.      3.974                                      1030200200088 
 5400.      5450.      3.772                                      1030200200089 
 5450.      5500.      3.657                                      1030200200090 
 5500.      5550.      4.773                                      1030200200091 
 5550.      5600.      4.472                                      1030200200092 
 5600.      5650.      3.949                                      1030200200093 
 5650.      5700.      3.357                                      1030200200094 
 5700.      5750.      3.206                                      1030200200095 
 5750.      5800.      4.205                                      1030200200096 
 5800.      5850.      4.237                                      1030200200097 
 5850.      5900.      4.918                                      1030200200098 
 5900.      5950.      3.350                                      1030200200099 
 5950.      6000.      3.523                                      1030200200100 
 6000.      6050.      3.831                                      1030200200101 
 6050.      6100.      3.439                                      1030200200102 
 6100.      6150.      3.327                                      1030200200103 
 6150.      6200.      2.953                                      1030200200104 
 6200.      6250.      3.403                                      1030200200105 
 6250.      6300.      3.196                                      1030200200106 
 6300.      6350.      3.369                                      1030200200107 
 6350.      6400.      3.190                                      1030200200108 
 6400.      6450.      3.695                                      1030200200109 
 6450.      6500.      3.326                                      1030200200110 
 6500.      6550.      3.408                                      1030200200111 
 6550.      6600.      3.359                                      1030200200112 
 6600.      6650.      3.258                                      1030200200113 
 6650.      6700.      2.869                                      1030200200114 
 6700.      6750.      2.871                                      1030200200115 
 6750.      6800.      3.336                                      1030200200116 
 6800.      6850.      3.272                                      1030200200117 
 6850.      6900.      3.387                                      1030200200118 
 6900.      6950.      3.834                                      1030200200119 
 6950.      7000.      3.759                                      1030200200120 
 7000.      7050.      4.053                                      1030200200121 
 7050.      7100.      3.960                                      1030200200122 
 7100.      7150.      3.185                                      1030200200123 
 7150.      7200.      2.962                                      1030200200124 
 7200.      7250.      3.462                                      1030200200125 
 7250.      7300.      3.278                                      1030200200126 
 7300.      7350.      2.925                                      1030200200127 
 7350.      7400.      4.658                                      1030200200128 
 7400.      7450.      3.267                                      1030200200129 
 7450.      7500.      3.341                                      1030200200130 
 7500.      7550.      3.899                                      1030200200131 
 7550.      7600.      2.936                                      1030200200132 
 7600.      7650.      3.218                                      1030200200133 
 7650.      7700.      3.418                                      1030200200134 
 7700.      7750.      2.620                                      1030200200135 
 7750.      7800.      3.711                                      1030200200136 
 7800.      7850.      2.571                                      1030200200137 
 7850.      7900.      3.653                                      1030200200138 
 7900.      7950.      2.794                                      1030200200139 
 7950.      8000.      2.571                                      1030200200140 
 8000.      8050.      2.803                                      1030200200141 
 8050.      8100.      3.496                                      1030200200142 
 8100.      8150.      3.069                                      1030200200143 
 8150.      8200.      2.921                                      1030200200144 
 8200.      8250.      2.488                                      1030200200145 
 8250.      8300.      2.624                                      1030200200146 
 8300.      8350.      2.763                                      1030200200147 
 8350.      8400.      2.924                                      1030200200148 
 8400.      8450.      3.148                                      1030200200149 
 8450.      8500.      3.697                                      1030200200150 
 8500.      8550.      2.912                                      1030200200151 
 8550.      8600.      2.974                                      1030200200152 
 8600.      8650.      3.675                                      1030200200153 
 8650.      8700.      3.469                                      1030200200154 
 8700.      8750.      3.704                                      1030200200155 
 8750.      8800.      3.593                                      1030200200156 
 8800.      8850.      3.164                                      1030200200157 
 8850.      8900.      2.788                                      1030200200158 
 8900.      8950.      2.476                                      1030200200159 
 8950.      9000.      2.627                                      1030200200160 
 9000.      9050.      2.459                                      1030200200161 
 9050.      9100.      2.992                                      1030200200162 
 9100.      9150.      3.727                                      1030200200163 
 9150.      9200.      3.305                                      1030200200164 
 9200.      9250.      3.337                                      1030200200165 
 9250.      9300.      3.406                                      1030200200166 
 9300.      9350.      2.977                                      1030200200167 
 9350.      9400.      3.063                                      1030200200168 
 9400.      9450.      3.370                                      1030200200169 
 9450.      9500.      3.499                                      1030200200170 
 9500.      9550.      3.248                                      1030200200171 
 9550.      9600.      2.765                                      1030200200172 
 9600.      9650.      2.952                                      1030200200173 
 9650.      9700.      3.213                                      1030200200174 
 9700.      9750.      2.859                                      1030200200175 
 9750.      9800.      3.291                                      1030200200176 
 9800.      9850.      3.242                                      1030200200177 
 9850.      9900.      3.052                                      1030200200178 
 9900.      9950.      2.968                                      1030200200179 
 9950.     10000.      3.320                                      1030200200180 
10000.     10050.      2.559                                      1030200200181 
10050.     10100.      2.615                                      1030200200182 
10100.     10150.      3.308                                      1030200200183 
10150.     10200.      2.879                                      1030200200184 
10200.     10250.      2.831                                      1030200200185 
10250.     10300.      2.905                                      1030200200186 
10300.     10350.      2.583                                      1030200200187 
10350.     10400.      2.672                                      1030200200188 
10400.     10450.      2.902                                      1030200200189 
10450.     10500.      2.808                                      1030200200190 
10500.     10550.      2.478                                      1030200200191 
10550.     10600.      2.988                                      1030200200192 
10600.     10650.      3.104                                      1030200200193 
10650.     10700.      3.134                                      1030200200194 
10700.     10750.      3.060                                      1030200200195 
10750.     10800.      2.984                                      1030200200196 
10800.     10850.      2.701                                      1030200200197 
10850.     10900.      2.475                                      1030200200198 
10900.     10950.      2.677                                      1030200200199 
10950.     11000.      2.712                                      1030200200200 
11000.     11050.      2.789                                      1030200200201 
11050.     11100.      3.196                                      1030200200202 
11100.     11150.      2.993                                      1030200200203 
11150.     11200.      2.829                                      1030200200204 
11200.     11250.      2.538                                      1030200200205 
11250.     11300.      2.900                                      1030200200206 
11300.     11350.      3.181                                      1030200200207 
11350.     11400.      2.844                                      1030200200208 
11400.     11450.      2.664                                      1030200200209 
11450.     11500.      3.130                                      1030200200210 
11500.     11550.      2.868                                      1030200200211 
11550.     11600.      2.609                                      1030200200212 
11600.     11650.      2.370                                      1030200200213 
11650.     11700.      2.304                                      1030200200214 
11700.     11750.      2.317                                      1030200200215 
11750.     11800.      2.523                                      1030200200216 
11800.     11850.      3.083                                      1030200200217 
11850.     11900.      3.130                                      1030200200218 
11900.     11950.      2.395                                      1030200200219 
11950.     12000.      2.655                                      1030200200220 
12000.     12050.      2.792                                      1030200200221 
12050.     12100.      2.834                                      1030200200222 
12100.     12150.      2.856                                      1030200200223 
12150.     12200.      2.986                                      1030200200224 
12200.     12250.      2.710                                      1030200200225 
12250.     12300.      2.314                                      1030200200226 
12300.     12350.      2.338                                      1030200200227 
12350.     12400.      2.303                                      1030200200228 
12400.     12450.      2.449                                      1030200200229 
12450.     12500.      2.419                                      1030200200230 
12500.     12550.      2.397                                      1030200200231 
12550.     12600.      2.718                                      1030200200232 
12600.     12650.      2.359                                      1030200200233 
12650.     12700.      2.525                                      1030200200234 
12700.     12750.      2.277                                      1030200200235 
12750.     12800.      2.365                                      1030200200236 
12800.     12850.      2.701                                      1030200200237 
12850.     12900.      2.019                                      1030200200238 
12900.     12950.      2.684                                      1030200200239 
12950.     13000.      2.891                                      1030200200240 
13000.     13050.      3.135                                      1030200200241 
13050.     13100.      2.589                                      1030200200242 
13100.     13150.      2.757                                      1030200200243 
13150.     13200.      2.845                                      1030200200244 
13200.     13250.      3.152                                      1030200200245 
13250.     13300.      2.950                                      1030200200246 
13300.     13350.      3.103                                      1030200200247 
13350.     13400.      2.893                                      1030200200248 
13400.     13450.      2.612                                      1030200200249 
13450.     13500.      2.502                                      1030200200250 
13500.     13550.      3.021                                      1030200200251 
13550.     13600.      2.662                                      1030200200252 
13600.     13650.      2.713                                      1030200200253 
13650.     13700.      2.683                                      1030200200254 
13700.     13750.      2.555                                      1030200200255 
13750.     13800.      2.004                                      1030200200256 
13800.     13850.      2.437                                      1030200200257 
13850.     13900.      2.394                                      1030200200258 
13900.     13950.      2.379                                      1030200200259 
13950.     14000.      2.718                                      1030200200260 
14000.     14050.      2.899                                      1030200200261 
14050.     14100.      2.530                                      1030200200262 
14100.     14150.      2.262                                      1030200200263 
14150.     14200.      2.268                                      1030200200264 
14200.     14250.      2.520                                      1030200200265 
14250.     14300.      2.573                                      1030200200266 
14300.     14350.      2.735                                      1030200200267 
14350.     14400.      2.760                                      1030200200268 
14400.     14450.      2.114                                      1030200200269 
14450.     14500.      2.682                                      1030200200270 
14500.     14550.      2.575                                      1030200200271 
14550.     14600.      2.588                                      1030200200272 
14600.     14650.      2.638                                      1030200200273 
14650.     14700.      2.944                                      1030200200274 
14700.     14750.      2.721                                      1030200200275 
14750.     14800.      2.210                                      1030200200276 
14800.     14850.      2.857                                      1030200200277 
14850.     14900.      3.272                                      1030200200278 
14900.     14950.      3.178                                      1030200200279 
14950.     15000.      3.039                                      1030200200280 
15000.     15050.      2.366                                      1030200200281 
15050.     15100.      1.948                                      1030200200282 
15100.     15150.      2.157                                      1030200200283 
15150.     15200.      2.443                                      1030200200284 
15200.     15250.      2.033                                      1030200200285 
15250.     15300.      2.174                                      1030200200286 
15300.     15350.      2.531                                      1030200200287 
15350.     15400.      2.315                                      1030200200288 
15400.     15450.      2.491                                      1030200200289 
15450.     15500.      2.266                                      1030200200290 
15500.     15550.      2.185                                      1030200200291 
15550.     15600.      2.202                                      1030200200292 
15600.     15650.      2.483                                      1030200200293 
15650.     15700.      2.667                                      1030200200294 
15700.     15750.      2.267                                      1030200200295 
15750.     15800.      2.499                                      1030200200296 
15800.     15850.      2.040                                      1030200200297 
15850.     15900.      2.370                                      1030200200298 
15900.     15950.      2.507                                      1030200200299 
15950.     16000.      2.314                                      1030200200300 
16000.     16050.      2.551                                      1030200200301 
16050.     16100.      2.393                                      1030200200302 
16100.     16150.      2.090                                      1030200200303 
16150.     16200.      2.207                                      1030200200304 
16200.     16250.      2.404                                      1030200200305 
16250.     16300.      2.486                                      1030200200306 
16300.     16350.      2.324                                      1030200200307 
16350.     16400.      2.429                                      1030200200308 
16400.     16450.      2.569                                      1030200200309 
16450.     16500.      2.264                                      1030200200310 
16500.     16550.      2.003                                      1030200200311 
16550.     16600.      2.520                                      1030200200312 
16600.     16650.      2.388                                      1030200200313 
16650.     16700.      2.421                                      1030200200314 
16700.     16750.      2.818                                      1030200200315 
16750.     16800.      2.126                                      1030200200316 
16800.     16850.      2.346                                      1030200200317 
16850.     16900.      2.363                                      1030200200318 
16900.     16950.      2.226                                      1030200200319 
16950.     17000.      2.250                                      1030200200320 
17000.     17050.      2.212                                      1030200200321 
17050.     17100.      2.245                                      1030200200322 
17100.     17150.      2.463                                      1030200200323 
17150.     17200.      2.259                                      1030200200324 
17200.     17250.      2.144                                      1030200200325 
17250.     17300.      2.393                                      1030200200326 
17300.     17350.      2.358                                      1030200200327 
17350.     17400.      1.633                                      1030200200328 
17400.     17450.      2.077                                      1030200200329 
17450.     17500.      2.175                                      1030200200330 
17500.     17550.      1.933                                      1030200200331 
17550.     17600.      2.627                                      1030200200332 
17600.     17650.      2.524                                      1030200200333 
17650.     17700.      2.208                                      1030200200334 
17700.     17750.      2.042                                      1030200200335 
17750.     17800.      2.286                                      1030200200336 
17800.     17850.      2.438                                      1030200200337 
17850.     17900.      2.606                                      1030200200338 
17900.     17950.      2.463                                      1030200200339 
17950.     18000.      2.404                                      1030200200340 
18000.     18050.      2.172                                      1030200200341 
18050.     18100.      2.460                                      1030200200342 
18100.     18150.      2.338                                      1030200200343 
18150.     18200.      2.410                                      1030200200344 
18200.     18250.      2.394                                      1030200200345 
18250.     18300.      2.050                                      1030200200346 
18300.     18350.      2.287                                      1030200200347 
18350.     18400.      2.680                                      1030200200348 
18400.     18450.      2.263                                      1030200200349 
18450.     18500.      2.150                                      1030200200350 
18500.     18550.      2.364                                      1030200200351 
18550.     18600.      2.382                                      1030200200352 
18600.     18650.      2.421                                      1030200200353 
18650.     18700.      2.301                                      1030200200354 
18700.     18750.      2.428                                      1030200200355 
18750.     18800.      2.479                                      1030200200356 
18800.     18850.      2.613                                      1030200200357 
18850.     18900.      2.514                                      1030200200358 
18900.     18950.      2.095                                      1030200200359 
18950.     19000.      2.895                                      1030200200360 
19000.     19050.      2.682                                      1030200200361 
19050.     19100.      2.331                                      1030200200362 
19100.     19150.      2.867                                      1030200200363 
19150.     19200.      2.353                                      1030200200364 
19200.     19250.      2.002                                      1030200200365 
19250.     19300.      2.345                                      1030200200366 
19300.     19350.      2.329                                      1030200200367 
19350.     19400.      2.024                                      1030200200368 
19400.     19450.      1.984                                      1030200200369 
19450.     19500.      2.551                                      1030200200370 
19500.     19550.      2.340                                      1030200200371 
19550.     19600.      2.463                                      1030200200372 
19600.     19650.      2.157                                      1030200200373 
19650.     19700.      2.136                                      1030200200374 
19700.     19750.      2.233                                      1030200200375 
19750.     19800.      2.038                                      1030200200376 
19800.     19850.      2.366                                      1030200200377 
19850.     19900.      2.159                                      1030200200378 
19900.     19950.      2.169                                      1030200200379 
19950.     20000.      2.449                                      1030200200380 
20000.     20050.      2.445                                      1030200200381 
20050.     20100.      2.637                                      1030200200382 
20100.     20150.      2.355                                      1030200200383 
20150.     20200.      2.514                                      1030200200384 
20200.     20250.      2.355                                      1030200200385 
20250.     20300.      1.812                                      1030200200386 
20300.     20350.      2.254                                      1030200200387 
20350.     20400.      1.779                                      1030200200388 
20400.     20450.      1.981                                      1030200200389 
20450.     20500.      1.808                                      1030200200390 
20500.     20550.      2.318                                      1030200200391 
20550.     20600.      2.308                                      1030200200392 
20600.     20650.      1.869                                      1030200200393 
20650.     20700.      1.710                                      1030200200394 
20700.     20750.      2.081                                      1030200200395 
20750.     20800.      2.374                                      1030200200396 
20800.     20850.      1.976                                      1030200200397 
20850.     20900.      1.835                                      1030200200398 
20900.     20950.      1.975                                      1030200200399 
20950.     21000.      2.216                                      1030200200400 
21000.     21050.      2.256                                      1030200200401 
21050.     21100.      2.037                                      1030200200402 
21100.     21150.      1.784                                      1030200200403 
21150.     21200.      1.722                                      1030200200404 
21200.     21250.      1.752                                      1030200200405 
21250.     21300.      1.988                                      1030200200406 
21300.     21350.      1.847                                      1030200200407 
21350.     21400.      1.715                                      1030200200408 
21400.     21450.      2.594                                      1030200200409 
21450.     21500.      2.185                                      1030200200410 
21500.     21550.      1.858                                      1030200200411 
21550.     21600.      2.233                                      1030200200412 
21600.     21650.      2.285                                      1030200200413 
21650.     21700.      2.385                                      1030200200414 
21700.     21750.      2.282                                      1030200200415 
21750.     21800.      2.717                                      1030200200416 
21800.     21850.      2.410                                      1030200200417 
21850.     21900.      2.769                                      1030200200418 
21900.     21950.      2.333                                      1030200200419 
21950.     22000.      2.424                                      1030200200420 
22000.     22050.      2.726                                      1030200200421 
22050.     22100.      2.667                                      1030200200422 
22100.     22150.      2.427                                      1030200200423 
22150.     22200.      2.479                                      1030200200424 
22200.     22250.      2.852                                      1030200200425 
22250.     22300.      2.875                                      1030200200426 
22300.     22350.      3.015                                      1030200200427 
22350.     22400.      3.127                                      1030200200428 
22400.     22450.      2.386                                      1030200200429 
22450.     22500.      2.143                                      1030200200430 
22500.     22550.      2.057                                      1030200200431 
22550.     22600.      2.278                                      1030200200432 
22600.     22650.      2.470                                      1030200200433 
22650.     22700.      2.261                                      1030200200434 
22700.     22750.      2.276                                      1030200200435 
22750.     22800.      2.304                                      1030200200436 
22800.     22850.      2.010                                      1030200200437 
22850.     22900.      2.195                                      1030200200438 
22900.     22950.      2.013                                      1030200200439 
22950.     23000.      1.719                                      1030200200440 
23000.     23050.      1.998                                      1030200200441 
23050.     23100.      1.726                                      1030200200442 
23100.     23150.      1.793                                      1030200200443 
23150.     23200.      2.001                                      1030200200444 
23200.     23250.      1.789                                      1030200200445 
23250.     23300.      2.009                                      1030200200446 
23300.     23350.      2.004                                      1030200200447 
23350.     23400.      2.041                                      1030200200448 
23400.     23450.      2.401                                      1030200200449 
23450.     23500.      2.183                                      1030200200450 
23500.     23550.      1.774                                      1030200200451 
23550.     23600.      2.020                                      1030200200452 
23600.     23650.      1.763                                      1030200200453 
23650.     23700.      2.137                                      1030200200454 
23700.     23750.      2.190                                      1030200200455 
23750.     23800.      2.409                                      1030200200456 
23800.     23850.      2.542                                      1030200200457 
23850.     23900.      2.374                                      1030200200458 
23900.     23950.      2.191                                      1030200200459 
23950.     24000.      2.333                                      1030200200460 
24000.     24050.      2.091                                      1030200200461 
24050.     24100.      2.056                                      1030200200462 
24100.     24150.      2.148                                      1030200200463 
24150.     24200.      1.984                                      1030200200464 
24200.     24250.      2.137                                      1030200200465 
24250.     24300.      1.993                                      1030200200466 
24300.     24350.      2.354                                      1030200200467 
24350.     24400.      2.423                                      1030200200468 
24400.     24450.      2.454                                      1030200200469 
24450.     24500.      2.120                                      1030200200470 
24500.     24550.      2.160                                      1030200200471 
24550.     24600.      2.260                                      1030200200472 
24600.     24650.      2.359                                      1030200200473 
24650.     24700.      2.271                                      1030200200474 
24700.     24750.      2.121                                      1030200200475 
24750.     24800.      2.610                                      1030200200476 
24800.     24850.      2.092                                      1030200200477 
24850.     24900.      2.158                                      1030200200478 
24900.     24950.      2.018                                      1030200200479 
24950.     25000.      2.158                                      1030200200480 
25000.     25050.      2.255                                      1030200200481 
25050.     25100.      2.121                                      1030200200482 
25100.     25150.      2.018                                      1030200200483 
25150.     25200.      2.158                                      1030200200484 
25200.     25250.      2.205                                      1030200200485 
25250.     25300.      2.195                                      1030200200486 
25300.     25350.      2.108                                      1030200200487 
25350.     25400.      2.354                                      1030200200488 
25400.     25450.      2.107                                      1030200200489 
25450.     25500.      2.325                                      1030200200490 
25500.     25550.      2.093                                      1030200200491 
25550.     25600.      2.134                                      1030200200492 
25600.     25650.      2.137                                      1030200200493 
25650.     25700.      2.463                                      1030200200494 
25700.     25750.      2.051                                      1030200200495 
25750.     25800.      1.942                                      1030200200496 
25800.     25850.      1.926                                      1030200200497 
25850.     25900.      2.003                                      1030200200498 
25900.     25950.      1.815                                      1030200200499 
25950.     26000.      1.753                                      1030200200500 
26000.     26050.      2.034                                      1030200200501 
26050.     26100.      2.489                                      1030200200502 
26100.     26150.      2.304                                      1030200200503 
26150.     26200.      2.143                                      1030200200504 
26200.     26250.      2.128                                      1030200200505 
26250.     26300.      2.407                                      1030200200506 
26300.     26350.      2.122                                      1030200200507 
26350.     26400.      2.146                                      1030200200508 
26400.     26450.      1.990                                      1030200200509 
26450.     26500.      2.192                                      1030200200510 
26500.     26550.      2.045                                      1030200200511 
26550.     26600.      1.803                                      1030200200512 
26600.     26650.      1.931                                      1030200200513 
26650.     26700.      2.205                                      1030200200514 
26700.     26750.      2.210                                      1030200200515 
26750.     26800.      2.117                                      1030200200516 
26800.     26850.      1.785                                      1030200200517 
26850.     26900.      2.065                                      1030200200518 
26900.     26950.      2.027                                      1030200200519 
26950.     27000.      1.990                                      1030200200520 
27000.     27050.      2.259                                      1030200200521 
27050.     27100.      2.107                                      1030200200522 
27100.     27150.      2.054                                      1030200200523 
27150.     27200.      2.183                                      1030200200524 
27200.     27250.      2.101                                      1030200200525 
27250.     27300.      2.149                                      1030200200526 
27300.     27350.      2.283                                      1030200200527 
27350.     27400.      2.237                                      1030200200528 
27400.     27450.      2.153                                      1030200200529 
27450.     27500.      2.088                                      1030200200530 
27500.     27550.      2.156                                      1030200200531 
27550.     27600.      1.982                                      1030200200532 
27600.     27650.      2.044                                      1030200200533 
27650.     27700.      1.865                                      1030200200534 
27700.     27750.      2.083                                      1030200200535 
27750.     27800.      2.559                                      1030200200536 
27800.     27850.      2.511                                      1030200200537 
27850.     27900.      2.278                                      1030200200538 
27900.     27950.      2.443                                      1030200200539 
27950.     28000.      2.440                                      1030200200540 
28000.     28050.      2.251                                      1030200200541 
28050.     28100.      1.961                                      1030200200542 
28100.     28150.      2.080                                      1030200200543 
28150.     28200.      2.222                                      1030200200544 
28200.     28250.      2.208                                      1030200200545 
28250.     28300.      2.328                                      1030200200546 
28300.     28350.      2.370                                      1030200200547 
28350.     28400.      2.158                                      1030200200548 
28400.     28450.      2.192                                      1030200200549 
28450.     28500.      2.314                                      1030200200550 
28500.     28550.      2.347                                      1030200200551 
28550.     28600.      2.002                                      1030200200552 
28600.     28650.      2.119                                      1030200200553 
28650.     28700.      1.773                                      1030200200554 
28700.     28750.      2.071                                      1030200200555 
28750.     28800.      2.360                                      1030200200556 
28800.     28850.      2.195                                      1030200200557 
28850.     28900.      2.272                                      1030200200558 
28900.     28950.      2.650                                      1030200200559 
28950.     29000.      2.686                                      1030200200560 
29000.     29050.      2.509                                      1030200200561 
29050.     29100.      2.191                                      1030200200562 
29100.     29150.      2.249                                      1030200200563 
29150.     29200.      2.189                                      1030200200564 
29200.     29250.      2.214                                      1030200200565 
29250.     29300.      2.464                                      1030200200566 
29300.     29350.      2.236                                      1030200200567 
29350.     29400.      1.908                                      1030200200568 
29400.     29450.      1.912                                      1030200200569 
29450.     29500.      2.061                                      1030200200570 
29500.     29550.      2.112                                      1030200200571 
29550.     29600.      2.103                                      1030200200572 
29600.     29650.      1.943                                      1030200200573 
29650.     29700.      1.845                                      1030200200574 
29700.     29750.      1.866                                      1030200200575 
29750.     29800.      1.945                                      1030200200576 
29800.     29850.      1.922                                      1030200200577 
29850.     29900.      1.870                                      1030200200578 
29900.     29950.      1.686                                      1030200200579 
29950.     30000.      1.833                                      1030200200580 
30000.     30050.      1.969                                      1030200200581 
30050.     30100.      2.122                                      1030200200582 
30100.     30150.      1.988                                      1030200200583 
30150.     30200.      1.837                                      1030200200584 
30200.     30250.      2.111                                      1030200200585 
30250.     30300.      2.042                                      1030200200586 
30300.     30350.      1.918                                      1030200200587 
30350.     30400.      1.918                                      1030200200588 
30400.     30450.      1.875                                      1030200200589 
30450.     30500.      2.150                                      1030200200590 
30500.     30550.      2.327                                      1030200200591 
30550.     30600.      2.138                                      1030200200592 
30600.     30650.      2.326                                      1030200200593 
30650.     30700.      1.944                                      1030200200594 
30700.     30750.      1.983                                      1030200200595 
30750.     30800.      2.086                                      1030200200596 
30800.     30850.      2.143                                      1030200200597 
30850.     30900.      2.394                                      1030200200598 
30900.     30950.      2.318                                      1030200200599 
30950.     31000.      2.210                                      1030200200600 
31000.     31050.      2.043                                      1030200200601 
31050.     31100.      2.059                                      1030200200602 
31100.     31150.      2.245                                      1030200200603 
31150.     31200.      2.514                                      1030200200604 
31200.     31250.      2.316                                      1030200200605 
31250.     31300.      1.894                                      1030200200606 
31300.     31350.      1.896                                      1030200200607 
31350.     31400.      1.916                                      1030200200608 
31400.     31450.      2.087                                      1030200200609 
31450.     31500.      1.950                                      1030200200610 
31500.     31550.      2.155                                      1030200200611 
31550.     31600.      2.327                                      1030200200612 
31600.     31650.      2.191                                      1030200200613 
31650.     31700.      2.268                                      1030200200614 
31700.     31750.      2.151                                      1030200200615 
31750.     31800.      2.169                                      1030200200616 
31800.     31850.      2.131                                      1030200200617 
31850.     31900.      2.287                                      1030200200618 
31900.     31950.      2.323                                      1030200200619 
31950.     32000.      1.970                                      1030200200620 
32000.     32050.      2.057                                      1030200200621 
32050.     32100.      1.957                                      1030200200622 
32100.     32150.      1.890                                      1030200200623 
32150.     32200.      1.851                                      1030200200624 
32200.     32250.      2.184                                      1030200200625 
32250.     32300.      2.245                                      1030200200626 
32300.     32350.      2.230                                      1030200200627 
32350.     32400.      2.471                                      1030200200628 
32400.     32450.      2.233                                      1030200200629 
32450.     32500.      2.015                                      1030200200630 
32500.     32550.      2.034                                      1030200200631 
32550.     32600.      2.022                                      1030200200632 
32600.     32650.      1.922                                      1030200200633 
32650.     32700.      1.972                                      1030200200634 
32700.     32750.      2.109                                      1030200200635 
32750.     32800.      2.079                                      1030200200636 
32800.     32850.      2.173                                      1030200200637 
32850.     32900.      2.014                                      1030200200638 
32900.     32950.      2.201                                      1030200200639 
32950.     33000.      2.077                                      1030200200640 
33000.     33050.      1.717                                      1030200200641 
33050.     33100.      1.804                                      1030200200642 
33100.     33150.      2.061                                      1030200200643 
33150.     33200.      2.360                                      1030200200644 
33200.     33250.      2.299                                      1030200200645 
33250.     33300.      2.238                                      1030200200646 
33300.     33350.      2.064                                      1030200200647 
33350.     33400.      1.963                                      1030200200648 
33400.     33450.      2.144                                      1030200200649 
33450.     33500.      2.285                                      1030200200650 
33500.     33550.      2.256                                      1030200200651 
33550.     33600.      2.335                                      1030200200652 
33600.     33650.      2.090                                      1030200200653 
33650.     33700.      2.177                                      1030200200654 
33700.     33750.      2.083                                      1030200200655 
33750.     33800.      2.046                                      1030200200656 
33800.     33850.      2.019                                      1030200200657 
33850.     33900.      1.973                                      1030200200658 
33900.     33950.      2.211                                      1030200200659 
33950.     34000.      2.185                                      1030200200660 
34000.     34050.      1.833                                      1030200200661 
34050.     34100.      2.043                                      1030200200662 
34100.     34150.      2.054                                      1030200200663 
34150.     34200.      1.942                                      1030200200664 
34200.     34250.      2.018                                      1030200200665 
34250.     34300.      1.978                                      1030200200666 
34300.     34350.      1.871                                      1030200200667 
34350.     34400.      1.881                                      1030200200668 
34400.     34450.      2.020                                      1030200200669 
34450.     34500.      2.211                                      1030200200670 
34500.     34550.      1.839                                      1030200200671 
34550.     34600.      1.783                                      1030200200672 
34600.     34650.      2.068                                      1030200200673 
34650.     34700.      2.114                                      1030200200674 
34700.     34750.      2.119                                      1030200200675 
34750.     34800.      2.207                                      1030200200676 
34800.     34850.      2.262                                      1030200200677 
34850.     34900.      2.093                                      1030200200678 
34900.     34950.      2.102                                      1030200200679 
34950.     35000.      2.010                                      1030200200680 
35000.     35050.      1.867                                      1030200200681 
35050.     35100.      2.061                                      1030200200682 
35100.     35150.      2.155                                      1030200200683 
35150.     35200.      2.176                                      1030200200684 
35200.     35250.      2.146                                      1030200200685 
35250.     35300.      2.291                                      1030200200686 
35300.     35350.      2.454                                      1030200200687 
35350.     35400.      2.064                                      1030200200688 
35400.     35450.      2.089                                      1030200200689 
35450.     35500.      2.047                                      1030200200690 
35500.     35550.      2.138                                      1030200200691 
35550.     35600.      2.161                                      1030200200692 
35600.     35650.      2.337                                      1030200200693 
35650.     35700.      2.269                                      1030200200694 
35700.     35750.      2.050                                      1030200200695 
35750.     35800.      2.128                                      1030200200696 
35800.     35850.      2.148                                      1030200200697 
35850.     35900.      2.376                                      1030200200698 
35900.     35950.      2.257                                      1030200200699 
35950.     36000.      2.026                                      1030200200700 
36000.     36050.      2.070                                      1030200200701 
36050.     36100.      1.761                                      1030200200702 
36100.     36150.      1.979                                      1030200200703 
36150.     36200.      1.913                                      1030200200704 
36200.     36250.      2.105                                      1030200200705 
36250.     36300.      1.824                                      1030200200706 
36300.     36350.      2.034                                      1030200200707 
36350.     36400.      1.855                                      1030200200708 
36400.     36450.      1.919                                      1030200200709 
36450.     36500.      1.877                                      1030200200710 
36500.     36550.      1.607                                      1030200200711 
36550.     36600.      1.951                                      1030200200712 
36600.     36650.      1.971                                      1030200200713 
36650.     36700.      1.911                                      1030200200714 
36700.     36750.      1.634                                      1030200200715 
36750.     36800.      1.937                                      1030200200716 
36800.     36850.      1.708                                      1030200200717 
36850.     36900.      2.010                                      1030200200718 
36900.     36950.      1.951                                      1030200200719 
36950.     37000.      2.042                                      1030200200720 
37000.     37050.      1.932                                      1030200200721 
37050.     37100.      1.892                                      1030200200722 
37100.     37150.      1.910                                      1030200200723 
37150.     37200.      2.087                                      1030200200724 
37200.     37250.      2.134                                      1030200200725 
37250.     37300.      2.077                                      1030200200726 
37300.     37350.      2.014                                      1030200200727 
37350.     37400.      2.042                                      1030200200728 
37400.     37450.      2.141                                      1030200200729 
37450.     37500.      2.022                                      1030200200730 
37500.     37550.      1.981                                      1030200200731 
37550.     37600.      1.985                                      1030200200732 
37600.     37650.      2.043                                      1030200200733 
37650.     37700.      1.949                                      1030200200734 
37700.     37750.      2.009                                      1030200200735 
37750.     37800.      1.932                                      1030200200736 
37800.     37850.      1.717                                      1030200200737 
37850.     37900.      1.944                                      1030200200738 
37900.     37950.      1.873                                      1030200200739 
37950.     38000.      1.952                                      1030200200740 
38000.     38050.      1.930                                      1030200200741 
38050.     38100.      1.720                                      1030200200742 
38100.     38150.      1.670                                      1030200200743 
38150.     38200.      1.783                                      1030200200744 
38200.     38250.      1.800                                      1030200200745 
38250.     38300.      1.880                                      1030200200746 
38300.     38350.      1.816                                      1030200200747 
38350.     38400.      1.883                                      1030200200748 
38400.     38450.      1.847                                      1030200200749 
38450.     38500.      2.116                                      1030200200750 
38500.     38550.      1.838                                      1030200200751 
38550.     38600.      1.736                                      1030200200752 
38600.     38650.      1.940                                      1030200200753 
38650.     38700.      2.102                                      1030200200754 
38700.     38750.      2.196                                      1030200200755 
38750.     38800.      2.344                                      1030200200756 
38800.     38850.      2.322                                      1030200200757 
38850.     38900.      2.037                                      1030200200758 
38900.     38950.      1.950                                      1030200200759 
38950.     39000.      2.051                                      1030200200760 
39000.     39050.      1.960                                      1030200200761 
39050.     39100.      1.993                                      1030200200762 
39100.     39150.      2.027                                      1030200200763 
39150.     39200.      2.039                                      1030200200764 
39200.     39250.      1.986                                      1030200200765 
39250.     39300.      1.849                                      1030200200766 
39300.     39350.      2.069                                      1030200200767 
39350.     39400.      1.821                                      1030200200768 
39400.     39450.      1.931                                      1030200200769 
39450.     39500.      2.084                                      1030200200770 
39500.     39550.      2.082                                      1030200200771 
39550.     39600.      2.039                                      1030200200772 
39600.     39650.      2.010                                      1030200200773 
39650.     39700.      1.949                                      1030200200774 
39700.     39750.      1.892                                      1030200200775 
39750.     39800.      1.967                                      1030200200776 
39800.     39850.      1.912                                      1030200200777 
39850.     39900.      2.099                                      1030200200778 
39900.     39950.      2.160                                      1030200200779 
39950.     40000.      2.073                                      1030200200780 
40000.     40050.      1.938                                      1030200200781 
40050.     40100.      1.792                                      1030200200782 
40100.     40150.      1.779                                      1030200200783 
40150.     40200.      2.061                                      1030200200784 
40200.     40250.      2.002                                      1030200200785 
40250.     40300.      1.998                                      1030200200786 
40300.     40350.      2.074                                      1030200200787 
40350.     40400.      2.118                                      1030200200788 
40400.     40450.      2.042                                      1030200200789 
40450.     40500.      2.125                                      1030200200790 
40500.     40550.      2.139                                      1030200200791 
40550.     40600.      2.177                                      1030200200792 
40600.     40650.      2.193                                      1030200200793 
40650.     40700.      2.134                                      1030200200794 
40700.     40750.      1.950                                      1030200200795 
40750.     40800.      1.922                                      1030200200796 
40800.     40850.      1.977                                      1030200200797 
40850.     40900.      1.907                                      1030200200798 
40900.     40950.      1.871                                      1030200200799 
40950.     41000.      1.940                                      1030200200800 
41000.     41050.      2.088                                      1030200200801 
41050.     41100.      2.009                                      1030200200802 
41100.     41150.      1.854                                      1030200200803 
41150.     41200.      1.852                                      1030200200804 
41200.     41250.      1.864                                      1030200200805 
41250.     41300.      1.842                                      1030200200806 
41300.     41350.      2.173                                      1030200200807 
41350.     41400.      2.166                                      1030200200808 
41400.     41450.      1.953                                      1030200200809 
41450.     41500.      1.884                                      1030200200810 
41500.     41550.      1.984                                      1030200200811 
41550.     41600.      2.150                                      1030200200812 
41600.     41650.      1.610                                      1030200200813 
41650.     41700.      1.726                                      1030200200814 
41700.     41750.      1.821                                      1030200200815 
41750.     41800.      1.874                                      1030200200816 
41800.     41850.      1.910                                      1030200200817 
41850.     41900.      1.679                                      1030200200818 
41900.     41950.      1.879                                      1030200200819 
41950.     42000.      1.832                                      1030200200820 
42000.     42050.      1.744                                      1030200200821 
42050.     42100.      1.863                                      1030200200822 
42100.     42150.      1.847                                      1030200200823 
42150.     42200.      2.030                                      1030200200824 
42200.     42250.      1.942                                      1030200200825 
42250.     42300.      1.805                                      1030200200826 
42300.     42350.      2.054                                      1030200200827 
42350.     42400.      1.993                                      1030200200828 
42400.     42450.      1.860                                      1030200200829 
42450.     42500.      1.949                                      1030200200830 
42500.     42550.      2.172                                      1030200200831 
42550.     42600.      1.793                                      1030200200832 
42600.     42650.      1.751                                      1030200200833 
42650.     42700.      1.755                                      1030200200834 
42700.     42750.      1.818                                      1030200200835 
42750.     42800.      1.975                                      1030200200836 
42800.     42850.      2.028                                      1030200200837 
42850.     42900.      2.084                                      1030200200838 
42900.     42950.      2.104                                      1030200200839 
42950.     43000.      2.079                                      1030200200840 
43000.     43050.      1.912                                      1030200200841 
43050.     43100.      1.881                                      1030200200842 
43100.     43150.      1.861                                      1030200200843 
43150.     43200.      1.873                                      1030200200844 
43200.     43250.      2.000                                      1030200200845 
43250.     43300.      2.023                                      1030200200846 
43300.     43350.      1.921                                      1030200200847 
43350.     43400.      1.836                                      1030200200848 
43400.     43450.      1.845                                      1030200200849 
43450.     43500.      2.058                                      1030200200850 
43500.     43550.      2.031                                      1030200200851 
43550.     43600.      2.088                                      1030200200852 
43600.     43650.      2.327                                      1030200200853 
43650.     43700.      2.037                                      1030200200854 
43700.     43750.      2.000                                      1030200200855 
43750.     43800.      1.961                                      1030200200856 
43800.     43850.      1.892                                      1030200200857 
43850.     43900.      2.068                                      1030200200858 
43900.     43950.      1.839                                      1030200200859 
43950.     44000.      1.737                                      1030200200860 
44000.     44050.      1.896                                      1030200200861 
44050.     44100.      1.973                                      1030200200862 
44100.     44150.      1.946                                      1030200200863 
44150.     44200.      1.962                                      1030200200864 
44200.     44250.      2.118                                      1030200200865 
44250.     44300.      2.089                                      1030200200866 
44300.     44350.      2.059                                      1030200200867 
44350.     44400.      2.046                                      1030200200868 
44400.     44450.      2.122                                      1030200200869 
44450.     44500.      1.829                                      1030200200870 
44500.     44550.      1.777                                      1030200200871 
44550.     44600.      1.824                                      1030200200872 
44600.     44650.      1.846                                      1030200200873 
44650.     44700.      1.790                                      1030200200874 
44700.     44750.      1.811                                      1030200200875 
44750.     44800.      1.932                                      1030200200876 
44800.     44850.      2.032                                      1030200200877 
44850.     44900.      2.047                                      1030200200878 
44900.     44950.      2.041                                      1030200200879 
44950.     45000.      1.976                                      1030200200880 
45000.     45050.      2.025                                      1030200200881 
45050.     45100.      1.946                                      1030200200882 
45100.     45150.      1.775                                      1030200200883 
45150.     45200.      1.651                                      1030200200884 
45200.     45250.      1.663                                      1030200200885 
45250.     45300.      1.728                                      1030200200886 
45300.     45350.      1.999                                      1030200200887 
45350.     45400.      2.035                                      1030200200888 
45400.     45450.      1.938                                      1030200200889 
45450.     45500.      1.733                                      1030200200890 
45500.     45550.      1.782                                      1030200200891 
45550.     45600.      1.792                                      1030200200892 
45600.     45650.      1.790                                      1030200200893 
45650.     45700.      1.718                                      1030200200894 
45700.     45750.      1.816                                      1030200200895 
45750.     45800.      1.883                                      1030200200896 
45800.     45850.      1.944                                      1030200200897 
45850.     45900.      2.069                                      1030200200898 
45900.     45950.      2.041                                      1030200200899 
45950.     46000.      1.955                                      1030200200900 
46000.     46050.      1.897                                      1030200200901 
46050.     46100.      1.850                                      1030200200902 
46100.     46150.      1.802                                      1030200200903 
46150.     46200.      1.712                                      1030200200904 
46200.     46250.      1.743                                      1030200200905 
46250.     46300.      1.832                                      1030200200906 
46300.     46350.      2.155                                      1030200200907 
46350.     46400.      2.222                                      1030200200908 
46400.     46450.      2.177                                      1030200200909 
46450.     46500.      1.983                                      1030200200910 
46500.     46550.      2.034                                      1030200200911 
46550.     46600.      2.012                                      1030200200912 
46600.     46650.      1.948                                      1030200200913 
46650.     46700.      2.067                                      1030200200914 
46700.     46750.      2.074                                      1030200200915 
46750.     46800.      2.061                                      1030200200916 
46800.     46850.      2.007                                      1030200200917 
46850.     46900.      1.934                                      1030200200918 
46900.     46950.      1.852                                      1030200200919 
46950.     47000.      1.733                                      1030200200920 
47000.     47050.      1.620                                      1030200200921 
47050.     47100.      1.511                                      1030200200922 
47100.     47150.      1.782                                      1030200200923 
47150.     47200.      1.767                                      1030200200924 
47200.     47250.      1.756                                      1030200200925 
47250.     47300.      1.908                                      1030200200926 
47300.     47350.      1.890                                      1030200200927 
47350.     47400.      1.873                                      1030200200928 
47400.     47450.      1.842                                      1030200200929 
47450.     47500.      1.912                                      1030200200930 
47500.     47550.      1.976                                      1030200200931 
47550.     47600.      1.776                                      1030200200932 
47600.     47650.      1.875                                      1030200200933 
47650.     47700.      1.975                                      1030200200934 
47700.     47750.      1.956                                      1030200200935 
47750.     47800.      1.996                                      1030200200936 
47800.     47850.      2.043                                      1030200200937 
47850.     47900.      1.949                                      1030200200938 
47900.     47950.      1.953                                      1030200200939 
47950.     48000.      1.968                                      1030200200940 
48000.     48050.      1.947                                      1030200200941 
48050.     48100.      1.983                                      1030200200942 
48100.     48150.      2.054                                      1030200200943 
48150.     48200.      1.986                                      1030200200944 
48200.     48250.      2.079                                      1030200200945 
48250.     48300.      2.370                                      1030200200946 
48300.     48350.      2.124                                      1030200200947 
48350.     48400.      2.004                                      1030200200948 
48400.     48450.      1.878                                      1030200200949 
48450.     48500.      1.755                                      1030200200950 
48500.     48550.      1.682                                      1030200200951 
48550.     48600.      1.715                                      1030200200952 
48600.     48650.      1.861                                      1030200200953 
48650.     48700.      2.002                                      1030200200954 
48700.     48750.      2.050                                      1030200200955 
48750.     48800.      2.068                                      1030200200956 
48800.     48850.      2.094                                      1030200200957 
48850.     48900.      2.099                                      1030200200958 
48900.     48950.      2.061                                      1030200200959 
48950.     49000.      1.928                                      1030200200960 
49000.     49050.      1.988                                      1030200200961 
49050.     49100.      2.008                                      1030200200962 
49100.     49150.      1.837                                      1030200200963 
49150.     49200.      1.902                                      1030200200964 
49200.     49250.      1.972                                      1030200200965 
49250.     49300.      1.963                                      1030200200966 
49300.     49350.      1.929                                      1030200200967 
49350.     49400.      1.850                                      1030200200968 
49400.     49450.      1.840                                      1030200200969 
49450.     49500.      1.839                                      1030200200970 
49500.     49550.      1.865                                      1030200200971 
49550.     49600.      1.914                                      1030200200972 
49600.     49650.      1.965                                      1030200200973 
49650.     49700.      1.839                                      1030200200974 
49700.     49750.      1.871                                      1030200200975 
49750.     49800.      2.007                                      1030200200976 
49800.     49850.      1.938                                      1030200200977 
49850.     49900.      1.902                                      1030200200978 
49900.     49950.      1.962                                      1030200200979 
49950.     50000.      1.894                                      1030200200980 
50000.     50050.      1.793                                      1030200200981 
50050.     50100.      1.861                                      1030200200982 
50100.     50150.      1.894                                      1030200200983 
50150.     50200.      1.975                                      1030200200984 
50200.     50250.      1.999                                      1030200200985 
50250.     50300.      2.024                                      1030200200986 
50300.     50350.      2.264                                      1030200200987 
50350.     50400.      2.232                                      1030200200988 
50400.     50450.      1.968                                      1030200200989 
50450.     50500.      1.974                                      1030200200990 
50500.     50550.      1.978                                      1030200200991 
50550.     50600.      2.041                                      1030200200992 
50600.     50650.      2.030                                      1030200200993 
50650.     50700.      1.976                                      1030200200994 
50700.     50750.      1.958                                      1030200200995 
50750.     50800.      1.945                                      1030200200996 
50800.     50850.      1.772                                      1030200200997 
50850.     50900.      1.764                                      1030200200998 
50900.     50950.      1.783                                      1030200200999 
50950.     51000.      1.875                                      1030200201000 
51000.     51050.      1.942                                      1030200201001 
51050.     51100.      2.160                                      1030200201002 
51100.     51150.      2.104                                      1030200201003 
51150.     51200.      1.813                                      1030200201004 
51200.     51250.      1.844                                      1030200201005 
51250.     51300.      1.871                                      1030200201006 
51300.     51350.      1.902                                      1030200201007 
51350.     51400.      1.921                                      1030200201008 
51400.     51450.      2.002                                      1030200201009 
51450.     51500.      2.038                                      1030200201010 
51500.     51550.      2.083                                      1030200201011 
51550.     51600.      1.962                                      1030200201012 
51600.     51650.      1.911                                      1030200201013 
51650.     51700.      1.671                                      1030200201014 
51700.     51750.      1.668                                      1030200201015 
51750.     51800.      1.662                                      1030200201016 
51800.     51850.      1.581                                      1030200201017 
51850.     51900.      1.528                                      1030200201018 
51900.     51950.      1.975                                      1030200201019 
51950.     52000.      2.047                                      1030200201020 
52000.     52050.      2.121                                      1030200201021 
52050.     52100.      2.045                                      1030200201022 
52100.     52150.      1.945                                      1030200201023 
52150.     52200.      1.975                                      1030200201024 
52200.     52250.      1.988                                      1030200201025 
52250.     52300.      1.881                                      1030200201026 
52300.     52350.      1.949                                      1030200201027 
52350.     52400.      2.209                                      1030200201028 
52400.     52450.      2.280                                      1030200201029 
52450.     52500.      2.360                                      1030200201030 
52500.     52550.      1.979                                      1030200201031 
52550.     52600.      1.832                                      1030200201032 
52600.     52650.      1.942                                      1030200201033 
52650.     52700.      1.926                                      1030200201034 
52700.     52750.      1.849                                      1030200201035 
52750.     52800.      1.875                                      1030200201036 
52800.     52850.      1.909                                      1030200201037 
52850.     52900.      2.004                                      1030200201038 
52900.     52950.      2.050                                      1030200201039 
52950.     53000.      1.785                                      1030200201040 
53000.     53050.      1.781                                      1030200201041 
53050.     53100.      1.954                                      1030200201042 
53100.     53150.      2.039                                      1030200201043 
53150.     53200.      2.204                                      1030200201044 
53200.     53250.      2.075                                      1030200201045 
53250.     53300.      1.972                                      1030200201046 
53300.     53350.      1.948                                      1030200201047 
53350.     53400.      1.940                                      1030200201048 
53400.     53450.      1.933                                      1030200201049 
53450.     53500.      1.965                                      1030200201050 
53500.     53550.      2.123                                      1030200201051 
53550.     53600.      2.111                                      1030200201052 
53600.     53650.      2.091                                      1030200201053 
53650.     53700.      2.036                                      1030200201054 
53700.     53750.      1.992                                      1030200201055 
53750.     53800.      2.024                                      1030200201056 
53800.     53850.      2.036                                      1030200201057 
53850.     53900.      1.842                                      1030200201058 
53900.     53950.      1.842                                      1030200201059 
53950.     54000.      1.982                                      1030200201060 
54000.     54050.      1.917                                      1030200201061 
54050.     54100.      1.744                                      1030200201062 
54100.     54150.      1.914                                      1030200201063 
54150.     54200.      2.130                                      1030200201064 
54200.     54250.      1.897                                      1030200201065 
54250.     54300.      1.743                                      1030200201066 
54300.     54350.      1.967                                      1030200201067 
54350.     54400.      2.036                                      1030200201068 
54400.     54450.      2.074                                      1030200201069 
54450.     54500.      2.067                                      1030200201070 
54500.     54550.      1.911                                      1030200201071 
54550.     54600.      1.930                                      1030200201072 
54600.     54650.      2.002                                      1030200201073 
54650.     54700.      1.996                                      1030200201074 
54700.     54750.      1.985                                      1030200201075 
54750.     54800.      2.030                                      1030200201076 
54800.     54850.      2.078                                      1030200201077 
54850.     54900.      1.950                                      1030200201078 
54900.     54950.      1.870                                      1030200201079 
54950.     55000.      1.904                                      1030200201080 
55000.     55050.      1.916                                      1030200201081 
55050.     55100.      1.842                                      1030200201082 
55100.     55150.      1.830                                      1030200201083 
55150.     55200.      1.680                                      1030200201084 
55200.     55250.      1.702                                      1030200201085 
55250.     55300.      1.970                                      1030200201086 
55300.     55350.      1.917                                      1030200201087 
55350.     55400.      1.698                                      1030200201088 
55400.     55450.      1.698                                      1030200201089 
55450.     55500.      1.697                                      1030200201090 
55500.     55550.      1.787                                      1030200201091 
55550.     55600.      1.929                                      1030200201092 
55600.     55650.      1.916                                      1030200201093 
55650.     55700.      1.903                                      1030200201094 
55700.     55750.      1.863                                      1030200201095 
55750.     55800.      1.832                                      1030200201096 
55800.     55850.      1.733                                      1030200201097 
55850.     55900.      1.679                                      1030200201098 
55900.     55950.      2.013                                      1030200201099 
55950.     56000.      2.139                                      1030200201100 
56000.     56050.      1.971                                      1030200201101 
56050.     56100.      1.928                                      1030200201102 
56100.     56150.      1.920                                      1030200201103 
56150.     56200.      1.919                                      1030200201104 
56200.     56250.      1.709                                      1030200201105 
56250.     56300.      1.692                                      1030200201106 
56300.     56350.      1.821                                      1030200201107 
56350.     56400.      1.816                                      1030200201108 
56400.     56450.      1.613                                      1030200201109 
56450.     56500.      1.629                                      1030200201110 
56500.     56550.      1.825                                      1030200201111 
56550.     56600.      1.820                                      1030200201112 
56600.     56650.      1.784                                      1030200201113 
56650.     56700.      1.765                                      1030200201114 
56700.     56750.      1.668                                      1030200201115 
56750.     56800.      1.682                                      1030200201116 
56800.     56850.      1.743                                      1030200201117 
56850.     56900.      1.743                                      1030200201118 
56900.     56950.      1.744                                      1030200201119 
56950.     57000.      1.779                                      1030200201120 
57000.     57050.      1.891                                      1030200201121 
57050.     57100.      1.850                                      1030200201122 
57100.     57150.      1.727                                      1030200201123 
57150.     57200.      1.775                                      1030200201124 
57200.     57250.      1.909                                      1030200201125 
57250.     57300.      1.912                                      1030200201126 
57300.     57350.      1.921                                      1030200201127 
57350.     57400.      1.923                                      1030200201128 
57400.     57450.      1.928                                      1030200201129 
57450.     57500.      1.979                                      1030200201130 
57500.     57550.      2.125                                      1030200201131 
57550.     57600.      2.082                                      1030200201132 
57600.     57650.      1.951                                      1030200201133 
57650.     57700.      1.959                                      1030200201134 
57700.     57750.      1.985                                      1030200201135 
57750.     57800.      1.972                                      1030200201136 
57800.     57850.      1.927                                      1030200201137 
57850.     57900.      1.928                                      1030200201138 
57900.     57950.      1.935                                      1030200201139 
57950.     58000.      1.920                                      1030200201140 
58000.     58050.      1.843                                      1030200201141 
58050.     58100.      1.824                                      1030200201142 
58100.     58150.      1.682                                      1030200201143 
58150.     58200.      1.699                                      1030200201144 
58200.     58250.      1.903                                      1030200201145 
58250.     58300.      1.900                                      1030200201146 
58300.     58350.      1.781                                      1030200201147 
58350.     58400.      1.781                                      1030200201148 
58400.     58450.      1.913                                      1030200201149 
58450.     58500.      1.916                                      1030200201150 
58500.     58550.      1.669                                      1030200201151 
58550.     58600.      1.647                                      1030200201152 
58600.     58650.      1.675                                      1030200201153 
58650.     58700.      1.680                                      1030200201154 
58700.     58750.      1.766                                      1030200201155 
58750.     58800.      1.790                                      1030200201156 
58800.     58850.      1.807                                      1030200201157 
58850.     58900.      1.814                                      1030200201158 
58900.     58950.      1.824                                      1030200201159 
58950.     59000.      1.831                                      1030200201160 
59000.     59050.      1.758                                      1030200201161 
59050.     59100.      1.697                                      1030200201162 
59100.     59150.      1.759                                      1030200201163 
59150.     59200.      1.834                                      1030200201164 
59200.     59250.      1.827                                      1030200201165 
59250.     59300.      1.814                                      1030200201166 
59300.     59350.      1.797                                      1030200201167 
59350.     59400.      1.746                                      1030200201168 
59400.     59450.      1.796                                      1030200201169 
59450.     59500.      2.101                                      1030200201170 
59500.     59550.      2.096                                      1030200201171 
59550.     59600.      1.901                                      1030200201172 
59600.     59650.      1.901                                      1030200201173 
59650.     59700.      1.750                                      1030200201174 
59700.     59750.      1.735                                      1030200201175 
59750.     59800.      1.808                                      1030200201176 
59800.     59850.      1.828                                      1030200201177 
59850.     59900.      1.820                                      1030200201178 
59900.     59950.      1.816                                      1030200201179 
59950.     60000.      1.827                                      1030200201180 
60000.     60050.      1.837                                      1030200201181 
60050.     60100.      1.854                                      1030200201182 
60100.     60150.      1.882                                      1030200201183 
60150.     60200.      1.890                                      1030200201184 
60200.     60250.      1.919                                      1030200201185 
60250.     60300.      1.916                                      1030200201186 
60300.     60350.      1.874                                      1030200201187 
60350.     60400.      1.874                                      1030200201188 
60400.     60450.      1.944                                      1030200201189 
60450.     60500.      1.951                                      1030200201190 
60500.     60550.      2.075                                      1030200201191 
60550.     60600.      2.117                                      1030200201192 
60600.     60650.      1.998                                      1030200201193 
60650.     60700.      1.909                                      1030200201194 
60700.     60750.      1.947                                      1030200201195 
60750.     60800.      2.004                                      1030200201196 
60800.     60850.      1.992                                      1030200201197 
60850.     60900.      1.946                                      1030200201198 
60900.     60950.      1.942                                      1030200201199 
60950.     61000.      1.773                                      1030200201200 
61000.     61050.      1.773                                      1030200201201 
61050.     61100.      1.640                                      1030200201202 
61100.     61150.      1.612                                      1030200201203 
61150.     61200.      1.807                                      1030200201204 
61200.     61250.      1.922                                      1030200201205 
61250.     61300.      1.810                                      1030200201206 
61300.     61350.      1.657                                      1030200201207 
61350.     61400.      1.701                                      1030200201208 
61400.     61450.      1.867                                      1030200201209 
61450.     61500.      1.867                                      1030200201210 
61500.     61550.      1.925                                      1030200201211 
61550.     61600.      1.925                                      1030200201212 
61600.     61650.      1.973                                      1030200201213 
61650.     61700.      1.988                                      1030200201214 
61700.     61750.      1.942                                      1030200201215 
61750.     61800.      1.902                                      1030200201216 
61800.     61850.      1.946                                      1030200201217 
61850.     61900.      2.050                                      1030200201218 
61900.     61950.      2.044                                      1030200201219 
61950.     62000.      1.934                                      1030200201220 
62000.     62050.      1.934                                      1030200201221 
62050.     62100.      1.844                                      1030200201222 
62100.     62150.      1.823                                      1030200201223 
62150.     62200.      1.746                                      1030200201224 
62200.     62250.      1.684                                      1030200201225 
62250.     62300.      1.753                                      1030200201226 
62300.     62350.      1.925                                      1030200201227 
62350.     62400.      1.927                                      1030200201228 
62400.     62450.      2.050                                      1030200201229 
62450.     62500.      2.050                                      1030200201230 
62500.     62550.      1.969                                      1030200201231 
62550.     62600.      1.942                                      1030200201232 
62600.     62650.      1.919                                      1030200201233 
62650.     62700.      1.893                                      1030200201234 
62700.     62750.      1.885                                      1030200201235 
62750.     62800.      1.850                                      1030200201236 
62800.     62850.      1.850                                      1030200201237 
62850.     62900.      1.869                                      1030200201238 
62900.     62950.      1.871                                      1030200201239 
62950.     63000.      1.846                                      1030200201240 
63000.     63050.      1.829                                      1030200201241 
63050.     63100.      1.830                                      1030200201242 
63100.     63150.      1.834                                      1030200201243 
63150.     63200.      1.834                                      1030200201244 
63200.     63250.      1.709                                      1030200201245 
63250.     63300.      1.706                                      1030200201246 
63300.     63350.      1.928                                      1030200201247 
63350.     63400.      2.044                                      1030200201248 
63400.     63450.      2.030                                      1030200201249 
63450.     63500.      2.003                                      1030200201250 
63500.     63550.      2.003                                      1030200201251 
63550.     63600.      1.909                                      1030200201252 
63600.     63650.      1.909                                      1030200201253 
63650.     63700.      1.972                                      1030200201254 
63700.     63750.      2.003                                      1030200201255 
63750.     63800.      1.924                                      1030200201256 
63800.     63850.      1.758                                      1030200201257 
63850.     63900.      1.758                                      1030200201258 
63900.     63950.      1.756                                      1030200201259 
63950.     64000.      1.756                                      1030200201260 
64000.     64050.      1.710                                      1030200201261 
64050.     64100.      1.681                                      1030200201262 
64100.     64150.      1.689                                      1030200201263 
64150.     64200.      1.715                                      1030200201264 
64200.     64250.      1.715                                      1030200201265 
64250.     64300.      1.693                                      1030200201266 
64300.     64350.      1.690                                      1030200201267 
64350.     64400.      1.757                                      1030200201268 
64400.     64450.      1.822                                      1030200201269 
64450.     64500.      1.815                                      1030200201270 
64500.     64550.      1.766                                      1030200201271 
64550.     64600.      1.766                                      1030200201272 
64600.     64650.      1.827                                      1030200201273 
64650.     64700.      1.849                                      1030200201274 
64700.     64750.      1.833                                      1030200201275 
64750.     64800.      1.803                                      1030200201276 
64800.     64850.      1.803                                      1030200201277 
64850.     64900.      1.718                                      1030200201278 
64900.     64950.      1.712                                      1030200201279 
64950.     65000.      1.686                                      1030200201280 
65000.     65050.      1.662                                      1030200201281 
65050.     65100.      1.678                                      1030200201282 
65100.     65150.      1.809                                      1030200201283 
65150.     65200.      1.809                                      1030200201284 
65200.     65250.      1.823                                      1030200201285 
65250.     65300.      1.830                                      1030200201286 
65300.     65350.      1.855                                      1030200201287 
65350.     65400.      1.927                                      1030200201288 
65400.     65450.      1.927                                      1030200201289 
65450.     65500.      1.980                                      1030200201290 
65500.     65550.      1.992                                      1030200201291 
65550.     65600.      1.947                                      1030200201292 
65600.     65650.      1.873                                      1030200201293 
65650.     65700.      1.873                                      1030200201294 
65700.     65750.      1.966                                      1030200201295 
65750.     65800.      1.973                                      1030200201296 
65800.     65850.      1.961                                      1030200201297 
65850.     65900.      1.948                                      1030200201298 
65900.     65950.      1.947                                      1030200201299 
65950.     66000.      1.830                                      1030200201300 
66000.     66050.      1.830                                      1030200201301 
66050.     66100.      1.824                                      1030200201302 
66100.     66150.      1.819                                      1030200201303 
66150.     66200.      1.834                                      1030200201304 
66200.     66250.      2.065                                      1030200201305 
66250.     66300.      2.065                                      1030200201306 
66300.     66350.      1.949                                      1030200201307 
66350.     66400.      1.863                                      1030200201308 
66400.     66450.      1.848                                      1030200201309 
66450.     66500.      1.688                                      1030200201310 
66500.     66550.      1.688                                      1030200201311 
66550.     66600.      1.778                                      1030200201312 
66600.     66650.      1.842                                      1030200201313 
66650.     66700.      1.834                                      1030200201314 
66700.     66750.      1.749                                      1030200201315 
66750.     66800.      1.749                                      1030200201316 
66800.     66850.      1.818                                      1030200201317 
66850.     66900.      1.870                                      1030200201318 
66900.     66950.      1.868                                      1030200201319 
66950.     67000.      1.820                                      1030200201320 
67000.     67050.      1.820                                      1030200201321 
67050.     67100.      1.808                                      1030200201322 
67100.     67150.      1.797                                      1030200201323 
67150.     67200.      1.797                                      1030200201324 
67200.     67250.      1.812                                      1030200201325 
67250.     67300.      1.812                                      1030200201326 
67300.     67350.      1.823                                      1030200201327 
67350.     67400.      1.837                                      1030200201328 
67400.     67450.      1.837                                      1030200201329 
67450.     67500.      1.876                                      1030200201330 
67500.     67550.      1.881                                      1030200201331 
67550.     67600.      1.905                                      1030200201332 
67600.     67650.      1.951                                      1030200201333 
67650.     67700.      1.951                                      1030200201334 
67700.     67750.      2.005                                      1030200201335 
67750.     67800.      2.021                                      1030200201336 
67800.     67850.      1.989                                      1030200201337 
67850.     67900.      1.871                                      1030200201338 
67900.     67950.      1.871                                      1030200201339 
67950.     68000.      1.889                                      1030200201340 
68000.     68050.      1.899                                      1030200201341 
68050.     68100.      1.898                                      1030200201342 
68100.     68150.      1.892                                      1030200201343 
68150.     68200.      1.892                                      1030200201344 
68200.     68250.      1.926                                      1030200201345 
68250.     68300.      1.966                                      1030200201346 
68300.     68350.      1.966                                      1030200201347 
68350.     68400.      1.715                                      1030200201348 
68400.     68450.      1.671                                      1030200201349 
68450.     68500.      1.701                                      1030200201350 
68500.     68550.      1.792                                      1030200201351 
68550.     68600.      1.792                                      1030200201352 
68600.     68650.      1.843                                      1030200201353 
68650.     68700.      1.872                                      1030200201354 
68700.     68750.      1.871                                      1030200201355 
68750.     68800.      1.787                                      1030200201356 
68800.     68850.      1.787                                      1030200201357 
68850.     68900.      1.773                                      1030200201358 
68900.     68950.      1.749                                      1030200201359 
68950.     69000.      1.749                                      1030200201360 
69000.     69050.      1.888                                      1030200201361 
69050.     69100.      1.937                                      1030200201362 
69100.     69150.      1.921                                      1030200201363 
69150.     69200.      1.782                                      1030200201364 
69200.     69250.      1.782                                      1030200201365 
69250.     69300.      1.727                                      1030200201366 
69300.     69350.      1.659                                      1030200201367 
69350.     69400.      1.659                                      1030200201368 
69400.     69450.      1.690                                      1030200201369 
69450.     69500.      1.699                                      1030200201370 
69500.     69550.      1.710                                      1030200201371 
69550.     69600.      1.797                                      1030200201372 
69600.     69650.      1.797                                      1030200201373 
69650.     69700.      1.739                                      1030200201374 
69700.     69750.      1.666                                      1030200201375 
69750.     69800.      1.666                                      1030200201376 
69800.     69850.      1.663                                      1030200201377 
69850.     69900.      1.661                                      1030200201378 
69900.     69950.      1.666                                      1030200201379 
69950.     70000.      1.726                                      1030200201380 
70000.     70050.      1.726                                      1030200201381 
70050.     70100.      1.704                                      1030200201382 
70100.     70150.      1.667                                      1030200201383 
70150.     70200.      1.667                                      1030200201384 
70200.     70250.      1.774                                      1030200201385 
70250.     70300.      1.828                                      1030200201386 
70300.     70350.      1.828                                      1030200201387 
70350.     70400.      1.841                                      1030200201388 
70400.     70450.      1.842                                      1030200201389 
70450.     70500.      1.847                                      1030200201390 
70500.     70550.      1.862                                      1030200201391 
70550.     70600.      1.862                                      1030200201392 
70600.     70650.      1.808                                      1030200201393 
70650.     70700.      1.753                                      1030200201394 
70700.     70750.      1.753                                      1030200201395 
70750.     70800.      1.720                                      1030200201396 
70800.     70850.      1.709                                      1030200201397 
70850.     70900.      1.708                                      1030200201398 
70900.     70950.      1.614                                      1030200201399 
70950.     71000.      1.614                                      1030200201400 
71000.     71050.      1.637                                      1030200201401 
71050.     71100.      1.705                                      1030200201402 
71100.     71150.      1.705                                      1030200201403 
71150.     71200.      1.765                                      1030200201404 
71200.     71250.      1.827                                      1030200201405 
71250.     71300.      1.827                                      1030200201406 
71300.     71350.      1.821                                      1030200201407 
71350.     71400.      1.819                                      1030200201408 
71400.     71450.      1.819                                      1030200201409 
71450.     71500.      1.649                                      1030200201410 
71500.     71550.      1.639                                      1030200201411 
71550.     71600.      1.644                                      1030200201412 
71600.     71650.      1.667                                      1030200201413 
71650.     71700.      1.667                                      1030200201414 
71700.     71750.      1.742                                      1030200201415 
71750.     71800.      1.873                                      1030200201416 
71800.     71850.      1.873                                      1030200201417 
71850.     71900.      1.884                                      1030200201418 
71900.     71950.      1.892                                      1030200201419 
71950.     72000.      1.892                                      1030200201420 
72000.     72050.      1.733                                      1030200201421 
72050.     72100.      1.681                                      1030200201422 
72100.     72150.      1.681                                      1030200201423 
72150.     72200.      1.750                                      1030200201424 
72200.     72250.      1.755                                      1030200201425 
72250.     72300.      1.773                                      1030200201426 
72300.     72350.      1.927                                      1030200201427 
72350.     72400.      1.927                                      1030200201428 
72400.     72450.      1.985                                      1030200201429 
72450.     72500.      2.143                                      1030200201430 
72500.     72550.      2.143                                      1030200201431 
72550.     72600.      2.106                                      1030200201432 
72600.     72650.      2.056                                      1030200201433 
72650.     72700.      2.056                                      1030200201434 
72700.     72750.      1.945                                      1030200201435 
72750.     72800.      1.862                                      1030200201436 
72800.     72850.      1.862                                      1030200201437 
72850.     72900.      1.885                                      1030200201438 
72900.     72950.      1.894                                      1030200201439 
72950.     73000.      1.894                                      1030200201440 
73000.     73050.      1.774                                      1030200201441 
73050.     73100.      1.752                                      1030200201442 
73100.     73150.      1.752                                      1030200201443 
73150.     73200.      1.873                                      1030200201444 
73200.     73250.      1.877                                      1030200201445 
73250.     73300.      1.880                                      1030200201446 
73300.     73350.      1.917                                      1030200201447 
73350.     73400.      1.917                                      1030200201448 
73400.     73450.      1.903                                      1030200201449 
73450.     73500.      1.838                                      1030200201450 
73500.     73550.      1.838                                      1030200201451 
73550.     73600.      1.818                                      1030200201452 
73600.     73650.      1.768                                      1030200201453 
73650.     73700.      1.768                                      1030200201454 
73700.     73750.      1.720                                      1030200201455 
73750.     73800.      1.638                                      1030200201456 
73800.     73850.      1.638                                      1030200201457 
73850.     73900.      1.718                                      1030200201458 
73900.     73950.      1.817                                      1030200201459 
73950.     74000.      1.817                                      1030200201460 
74000.     74050.      1.785                                      1030200201461 
74050.     74100.      1.756                                      1030200201462 
74100.     74150.      1.756                                      1030200201463 
74150.     74200.      1.721                                      1030200201464 
74200.     74250.      1.696                                      1030200201465 
74250.     74300.      1.696                                      1030200201466 
74300.     74350.      1.755                                      1030200201467 
74350.     74400.      1.790                                      1030200201468 
74400.     74450.      1.790                                      1030200201469 
74450.     74500.      1.863                                      1030200201470 
74500.     74550.      1.897                                      1030200201471 
74550.     74600.      1.897                                      1030200201472 
74600.     74650.      1.745                                      1030200201473 
74650.     74700.      1.684                                      1030200201474 
74700.     74750.      1.684                                      1030200201475 
74750.     74800.      1.717                                      1030200201476 
74800.     74850.      1.729                                      1030200201477 
74850.     74900.      1.729                                      1030200201478 
74900.     74950.      1.636                                      1030200201479 
74950.     75000.      1.606                                      1030200201480 
75000.     75050.      1.606                                      1030200201481 
75050.     75100.      1.802                                      1030200201482 
75100.     75150.      1.862                                      1030200201483 
75150.     75200.      1.862                                      1030200201484 
75200.     75250.      1.784                                      1030200201485 
75250.     75300.      1.759                                      1030200201486 
75300.     75350.      1.759                                      1030200201487 
75350.     75400.      1.790                                      1030200201488 
75400.     75450.      1.800                                      1030200201489 
75450.     75500.      1.800                                      1030200201490 
75500.     75550.      1.708                                      1030200201491 
75550.     75600.      1.676                                      1030200201492 
75600.     75650.      1.676                                      1030200201493 
75650.     75700.      1.716                                      1030200201494 
75700.     75750.      1.733                                      1030200201495 
75750.     75800.      1.733                                      1030200201496 
75800.     75850.      1.757                                      1030200201497 
75850.     75900.      1.769                                      1030200201498 
75900.     75950.      1.769                                      1030200201499 
75950.     76000.      1.742                                      1030200201500 
76000.     76050.      1.725                                      1030200201501 
76050.     76100.      1.725                                      1030200201502 
76100.     76150.      1.667                                      1030200201503 
76150.     76200.      1.624                                      1030200201504 
76200.     76250.      1.624                                      1030200201505 
76250.     76300.      1.610                                      1030200201506 
76300.     76350.      1.598                                      1030200201507 
76350.     76400.      1.598                                      1030200201508 
76400.     76450.      1.597                                      1030200201509 
76450.     76500.      1.595                                      1030200201510 
76500.     76550.      1.595                                      1030200201511 
76550.     76600.      1.644                                      1030200201512 
76600.     76650.      1.734                                      1030200201513 
76650.     76700.      1.734                                      1030200201514 
76700.     76750.      1.760                                      1030200201515 
76750.     76800.      1.834                                      1030200201516 
76800.     76850.      1.834                                      1030200201517 
76850.     76900.      1.841                                      1030200201518 
76900.     76950.      1.878                                      1030200201519 
76950.     77000.      1.878                                      1030200201520 
77000.     77050.      1.874                                      1030200201521 
77050.     77100.      1.795                                      1030200201522 
77100.     77150.      1.795                                      1030200201523 
77150.     77200.      1.795                                      1030200201524 
77200.     77250.      1.856                                      1030200201525 
77250.     77300.      1.860                                      1030200201526 
77300.     77350.      1.860                                      1030200201527 
77350.     77400.      1.732                                      1030200201528 
77400.     77450.      1.700                                      1030200201529 
77450.     77500.      1.700                                      1030200201530 
77500.     77550.      1.722                                      1030200201531 
77550.     77600.      1.734                                      1030200201532 
77600.     77650.      1.734                                      1030200201533 
77650.     77700.      1.753                                      1030200201534 
77700.     77750.      1.772                                      1030200201535 
77750.     77800.      1.772                                      1030200201536 
77800.     77850.      1.880                                      1030200201537 
77850.     77900.      2.078                                      1030200201538 
77900.     77950.      2.078                                      1030200201539 
77950.     78000.      2.032                                      1030200201540 
78000.     78050.      1.833                                      1030200201541 
78050.     78100.      1.833                                      1030200201542 
78100.     78150.      1.833                                      1030200201543 
78150.     78200.      1.888                                      1030200201544 
78200.     78250.      1.888                                      1030200201545 
78250.     78300.      1.888                                      1030200201546 
78300.     78350.      1.862                                      1030200201547 
78350.     78400.      1.856                                      1030200201548 
78400.     78450.      1.856                                      1030200201549 
78450.     78500.      1.756                                      1030200201550 
78500.     78550.      1.696                                      1030200201551 
78550.     78600.      1.696                                      1030200201552 
78600.     78650.      1.706                                      1030200201553 
78650.     78700.      1.721                                      1030200201554 
78700.     78750.      1.721                                      1030200201555 
78750.     78800.      1.719                                      1030200201556 
78800.     78850.      1.713                                      1030200201557 
78850.     78900.      1.713                                      1030200201558 
78900.     78950.      1.713                                      1030200201559 
78950.     79000.      1.520                                      1030200201560 
79000.     79050.      1.514                                      1030200201561 
79050.     79100.      1.514                                      1030200201562 
79100.     79150.      1.491                                      1030200201563 
79150.     79200.      1.483                                      1030200201564 
79200.     79250.      1.483                                      1030200201565 
79250.     79300.      1.588                                      1030200201566 
79300.     79350.      1.699                                      1030200201567 
79350.     79400.      1.699                                      1030200201568 
79400.     79450.      1.708                                      1030200201569 
79450.     79500.      1.737                                      1030200201570 
79500.     79550.      1.737                                      1030200201571 
79550.     79600.      1.737                                      1030200201572 
79600.     79650.      1.685                                      1030200201573 
79650.     79700.      1.684                                      1030200201574 
79700.     79750.      1.684                                      1030200201575 
79750.     79800.      1.714                                      1030200201576 
79800.     79850.      1.728                                      1030200201577 
79850.     79900.      1.728                                      1030200201578 
79900.     79950.      1.669                                      1030200201579 
79950.     80000.      1.581                                      1030200201580 
80000.     80050.      1.581                                      1030200201581 
80050.     80100.      1.586                                      1030200201582 
80100.     80150.      1.628                                      1030200201583 
80150.     80200.      1.628                                      1030200201584 
80200.     80250.      1.628                                      1030200201585 
80250.     80300.      1.705                                      1030200201586 
80300.     80350.      1.725                                      1030200201587 
80350.     80400.      1.725                                      1030200201588 
80400.     80450.      1.821                                      1030200201589 
80450.     80500.      1.925                                      1030200201590 
80500.     80550.      1.925                                      1030200201591 
80550.     80600.      1.896                                      1030200201592 
80600.     80650.      1.737                                      1030200201593 
80650.     80700.      1.737                                      1030200201594 
80700.     80750.      1.737                                      1030200201595 
80750.     80800.      1.796                                      1030200201596 
80800.     80850.      1.810                                      1030200201597 
80850.     80900.      1.810                                      1030200201598 
80900.     80950.      1.788                                      1030200201599 
80950.     81000.      1.763                                      1030200201600 
81000.     81050.      1.763                                      1030200201601 
81050.     81100.      1.753                                      1030200201602 
81100.     81150.      1.677                                      1030200201603 
81150.     81200.      1.677                                      1030200201604 
81200.     81250.      1.677                                      1030200201605 
81250.     81300.      1.710                                      1030200201606 
81300.     81350.      1.721                                      1030200201607 
81350.     81400.      1.721                                      1030200201608 
81400.     81450.      1.735                                      1030200201609 
81450.     81500.      1.759                                      1030200201610 
81500.     81550.      1.759                                      1030200201611 
81550.     81600.      1.759                                      1030200201612 
81600.     81650.      1.732                                      1030200201613 
81650.     81700.      1.731                                      1030200201614 
81700.     81750.      1.731                                      1030200201615 
81750.     81800.      1.747                                      1030200201616 
81800.     81850.      1.759                                      1030200201617 
81850.     81900.      1.759                                      1030200201618 
81900.     81950.      1.736                                      1030200201619 
81950.     82000.      1.614                                      1030200201620 
82000.     82050.      1.614                                      1030200201621 
82050.     82100.      1.614                                      1030200201622 
82100.     82150.      1.698                                      1030200201623 
82150.     82200.      1.728                                      1030200201624 
82200.     82250.      1.728                                      1030200201625 
82250.     82300.      1.684                                      1030200201626 
82300.     82350.      1.583                                      1030200201627 
82350.     82400.      1.583                                      1030200201628 
82400.     82450.      1.583                                      1030200201629 
82450.     82500.      1.480                                      1030200201630 
82500.     82550.      1.463                                      1030200201631 
82550.     82600.      1.463                                      1030200201632 
82600.     82650.      1.507                                      1030200201633 
82650.     82700.      1.573                                      1030200201634 
82700.     82750.      1.573                                      1030200201635 
82750.     82800.      1.573                                      1030200201636 
82800.     82850.      1.863                                      1030200201637 
82850.     82900.      1.882                                      1030200201638 
82900.     82950.      1.882                                      1030200201639 
82950.     83000.      1.832                                      1030200201640 
83000.     83050.      1.774                                      1030200201641 
83050.     83100.      1.774                                      1030200201642 
83100.     83150.      1.774                                      1030200201643 
83150.     83200.      1.674                                      1030200201644 
83200.     83250.      1.671                                      1030200201645 
83250.     83300.      1.671                                      1030200201646 
83300.     83350.      1.737                                      1030200201647 
83350.     83400.      1.810                                      1030200201648 
83400.     83450.      1.810                                      1030200201649 
83450.     83500.      1.810                                      1030200201650 
83500.     83550.      1.542                                      1030200201651 
83550.     83600.      1.533                                      1030200201652 
83600.     83650.      1.533                                      1030200201653 
83650.     83700.      1.585                                      1030200201654 
83700.     83750.      1.649                                      1030200201655 
83750.     83800.      1.649                                      1030200201656 
83800.     83850.      1.649                                      1030200201657 
83850.     83900.      1.547                                      1030200201658 
83900.     83950.      1.537                                      1030200201659 
83950.     84000.      1.537                                      1030200201660 
84000.     84050.      1.622                                      1030200201661 
84050.     84100.      1.766                                      1030200201662 
84100.     84150.      1.766                                      1030200201663 
84150.     84200.      1.766                                      1030200201664 
84200.     84250.      1.679                                      1030200201665 
84250.     84300.      1.660                                      1030200201666 
84300.     84350.      1.660                                      1030200201667 
84350.     84400.      1.655                                      1030200201668 
84400.     84450.      1.640                                      1030200201669 
84450.     84500.      1.640                                      1030200201670 
84500.     84550.      1.640                                      1030200201671 
84550.     84600.      1.613                                      1030200201672 
84600.     84650.      1.600                                      1030200201673 
84650.     84700.      1.600                                      1030200201674 
84700.     84750.      1.609                                      1030200201675 
84750.     84800.      1.706                                      1030200201676 
84800.     84850.      1.706                                      1030200201677 
84850.     84900.      1.706                                      1030200201678 
84900.     84950.      1.731                                      1030200201679 
84950.     85000.      1.759                                      1030200201680 
85000.     85050.      1.759                                      1030200201681 
85050.     85100.      1.759                                      1030200201682 
85100.     85150.      1.828                                      1030200201683 
85150.     85200.      1.838                                      1030200201684 
85200.     85250.      1.838                                      1030200201685 
85250.     85300.      1.787                                      1030200201686 
85300.     85350.      1.636                                      1030200201687 
85350.     85400.      1.636                                      1030200201688 
85400.     85450.      1.636                                      1030200201689 
85450.     85500.      1.584                                      1030200201690 
85500.     85550.      1.552                                      1030200201691 
85550.     85600.      1.552                                      1030200201692 
85600.     85650.      1.552                                      1030200201693 
85650.     85700.      1.806                                      1030200201694 
85700.     85750.      1.813                                      1030200201695 
85750.     85800.      1.813                                      1030200201696 
85800.     85850.      1.770                                      1030200201697 
85850.     85900.      1.676                                      1030200201698 
85900.     85950.      1.676                                      1030200201699 
85950.     86000.      1.676                                      1030200201700 
86000.     86050.      1.696                                      1030200201701 
86050.     86100.      1.706                                      1030200201702 
86100.     86150.      1.706                                      1030200201703 
86150.     86200.      1.706                                      1030200201704 
86200.     86250.      1.690                                      1030200201705 
86250.     86300.      1.690                                      1030200201706 
86300.     86350.      1.690                                      1030200201707 
86350.     86400.      1.697                                      1030200201708 
86400.     86450.      1.718                                      1030200201709 
86450.     86500.      1.718                                      1030200201710 
86500.     86550.      1.718                                      1030200201711 
86550.     86600.      1.646                                      1030200201712 
86600.     86650.      1.591                                      1030200201713 
86650.     86700.      1.591                                      1030200201714 
86700.     86750.      1.591                                      1030200201715 
86750.     86800.      1.693                                      1030200201716 
86800.     86850.      1.710                                      1030200201717 
86850.     86900.      1.710                                      1030200201718 
86900.     86950.      1.690                                      1030200201719 
86950.     87000.      1.547                                      1030200201720 
87000.     87050.      1.547                                      1030200201721 
87050.     87100.      1.547                                      1030200201722 
87100.     87150.      1.649                                      1030200201723 
87150.     87200.      1.813                                      1030200201724 
87200.     87250.      1.813                                      1030200201725 
87250.     87300.      1.813                                      1030200201726 
87300.     87350.      1.741                                      1030200201727 
87350.     87400.      1.698                                      1030200201728 
87400.     87450.      1.698                                      1030200201729 
87450.     87500.      1.698                                      1030200201730 
87500.     87550.      1.784                                      1030200201731 
87550.     87600.      1.797                                      1030200201732 
87600.     87650.      1.797                                      1030200201733 
87650.     87700.      1.779                                      1030200201734 
87700.     87750.      1.592                                      1030200201735 
87750.     87800.      1.592                                      1030200201736 
87800.     87850.      1.592                                      1030200201737 
87850.     87900.      1.606                                      1030200201738 
87900.     87950.      1.639                                      1030200201739 
87950.     88000.      1.639                                      1030200201740 
88000.     88050.      1.639                                      1030200201741 
88050.     88100.      1.605                                      1030200201742 
88100.     88150.      1.571                                      1030200201743 
88150.     88200.      1.571                                      1030200201744 
88200.     88250.      1.571                                      1030200201745 
88250.     88300.      1.663                                      1030200201746 
88300.     88350.      1.705                                      1030200201747 
88350.     88400.      1.705                                      1030200201748 
88400.     88450.      1.705                                      1030200201749 
88450.     88500.      1.608                                      1030200201750 
88500.     88550.      1.592                                      1030200201751 
88550.     88600.      1.592                                      1030200201752 
88600.     88650.      1.594                                      1030200201753 
88650.     88700.      1.717                                      1030200201754 
88700.     88750.      1.717                                      1030200201755 
88750.     88800.      1.717                                      1030200201756 
88800.     88850.      1.714                                      1030200201757 
88850.     88900.      1.699                                      1030200201758 
88900.     88950.      1.699                                      1030200201759 
88950.     89000.      1.699                                      1030200201760 
89000.     89050.      1.677                                      1030200201761 
89050.     89100.      1.628                                      1030200201762 
89100.     89150.      1.628                                      1030200201763 
89150.     89200.      1.628                                      1030200201764 
89200.     89250.      1.618                                      1030200201765 
89250.     89300.      1.604                                      1030200201766 
89300.     89350.      1.604                                      1030200201767 
89350.     89400.      1.604                                      1030200201768 
89400.     89450.      1.680                                      1030200201769 
89450.     89500.      1.745                                      1030200201770 
89500.     89550.      1.745                                      1030200201771 
89550.     89600.      1.745                                      1030200201772 
89600.     89650.      1.883                                      1030200201773 
89650.     89700.      1.961                                      1030200201774 
89700.     89750.      1.961                                      1030200201775 
89750.     89800.      1.961                                      1030200201776 
89800.     89850.      1.752                                      1030200201777 
89850.     89900.      1.672                                      1030200201778 
89900.     89950.      1.672                                      1030200201779 
89950.     90000.      1.672                                      1030200201780 
90000.     90050.      1.690                                      1030200201781 
90050.     90100.      1.694                                      1030200201782 
90100.     90150.      1.694                                      1030200201783 
90150.     90200.      1.694                                      1030200201784 
90200.     90250.      1.589                                      1030200201785 
90250.     90300.      1.571                                      1030200201786 
90300.     90350.      1.571                                      1030200201787 
90350.     90400.      1.571                                      1030200201788 
90400.     90450.      1.573                                      1030200201789 
90450.     90500.      1.573                                      1030200201790 
90500.     90550.      1.573                                      1030200201791 
90550.     90600.      1.573                                      1030200201792 
90600.     90650.      1.609                                      1030200201793 
90650.     90700.      1.611                                      1030200201794 
90700.     90750.      1.611                                      1030200201795 
90750.     90800.      1.611                                      1030200201796 
90800.     90850.      1.693                                      1030200201797 
90850.     90900.      1.697                                      1030200201798 
90900.     90950.      1.697                                      1030200201799 
90950.     91000.      1.697                                      1030200201800 
91000.     91050.      1.717                                      1030200201801 
91050.     91100.      1.717                                      1030200201802 
91100.     91150.      1.717                                      1030200201803 
91150.     91200.      1.717                                      1030200201804 
91200.     91250.      1.449                                      1030200201805 
91250.     91300.      1.437                                      1030200201806 
91300.     91350.      1.437                                      1030200201807 
91350.     91400.      1.437                                      1030200201808 
91400.     91450.      1.525                                      1030200201809 
91450.     91500.      1.530                                      1030200201810 
91500.     91550.      1.530                                      1030200201811 
91550.     91600.      1.530                                      1030200201812 
91600.     91650.      1.626                                      1030200201813 
91650.     91700.      1.636                                      1030200201814 
91700.     91750.      1.636                                      1030200201815 
91750.     91800.      1.636                                      1030200201816 
91800.     91850.      1.563                                      1030200201817 
91850.     91900.      1.551                                      1030200201818 
91900.     91950.      1.551                                      1030200201819 
91950.     92000.      1.551                                      1030200201820 
92000.     92050.      1.633                                      1030200201821 
92050.     92100.      1.654                                      1030200201822 
92100.     92150.      1.654                                      1030200201823 
92150.     92200.      1.654                                      1030200201824 
92200.     92250.      1.588                                      1030200201825 
92250.     92300.      1.564                                      1030200201826 
92300.     92350.      1.564                                      1030200201827 
92350.     92400.      1.564                                      1030200201828 
92400.     92450.      1.550                                      1030200201829 
92450.     92500.      1.542                                      1030200201830 
92500.     92550.      1.542                                      1030200201831 
92550.     92600.      1.542                                      1030200201832 
92600.     92650.      1.513                                      1030200201833 
92650.     92700.      1.489                                      1030200201834 
92700.     92750.      1.489                                      1030200201835 
92750.     92800.      1.489                                      1030200201836 
92800.     92850.      1.559                                      1030200201837 
92850.     92900.      1.650                                      1030200201838 
92900.     92950.      1.650                                      1030200201839 
92950.     93000.      1.650                                      1030200201840 
93000.     93050.      1.666                                      1030200201841 
93050.     93100.      1.705                                      1030200201842 
93100.     93150.      1.705                                      1030200201843 
93150.     93200.      1.705                                      1030200201844 
93200.     93250.      1.703                                      1030200201845 
93250.     93300.      1.690                                      1030200201846 
93300.     93350.      1.690                                      1030200201847 
93350.     93400.      1.690                                      1030200201848 
93400.     93450.      1.689                                      1030200201849 
93450.     93500.      1.570                                      1030200201850 
93500.     93550.      1.570                                      1030200201851 
93550.     93600.      1.570                                      1030200201852 
93600.     93650.      1.570                                      1030200201853 
93650.     93700.      1.719                                      1030200201854 
93700.     93750.      1.747                                      1030200201855 
93750.     93800.      1.747                                      1030200201856 
93800.     93850.      1.747                                      1030200201857 
93850.     93900.      1.617                                      1030200201858 
93900.     93950.      1.549                                      1030200201859 
93950.     94000.      1.549                                      1030200201860 
94000.     94050.      1.549                                      1030200201861 
94050.     94100.      1.691                                      1030200201862 
94100.     94150.      1.855                                      1030200201863 
94150.     94200.      1.855                                      1030200201864 
94200.     94250.      1.855                                      1030200201865 
94250.     94300.      1.784                                      1030200201866 
94300.     94350.      1.572                                      1030200201867 
94350.     94400.      1.572                                      1030200201868 
94400.     94450.      1.572                                      1030200201869 
94450.     94500.      1.573                                      1030200201870 
94500.     94550.      1.620                                      1030200201871 
94550.     94600.      1.620                                      1030200201872 
94600.     94650.      1.620                                      1030200201873 
94650.     94700.      1.620                                      1030200201874 
94700.     94750.      1.675                                      1030200201875 
94750.     94800.      1.690                                      1030200201876 
94800.     94850.      1.690                                      1030200201877 
94850.     94900.      1.690                                      1030200201878 
94900.     94950.      1.660                                      1030200201879 
94950.     95000.      1.633                                      1030200201880 
95000.     95050.      1.633                                      1030200201881 
95050.     95100.      1.633                                      1030200201882 
95100.     95150.      1.649                                      1030200201883 
95150.     95200.      1.693                                      1030200201884 
95200.     95250.      1.693                                      1030200201885 
95250.     95300.      1.693                                      1030200201886 
95300.     95350.      1.693                                      1030200201887 
95350.     95400.      1.693                                      1030200201888 
95400.     95450.      1.693                                      1030200201889 
95450.     95500.      1.693                                      1030200201890 
95500.     95550.      1.693                                      1030200201891 
95550.     95600.      1.766                                      1030200201892 
95600.     95650.      1.799                                      1030200201893 
95650.     95700.      1.799                                      1030200201894 
95700.     95750.      1.799                                      1030200201895 
95750.     95800.      1.773                                      1030200201896 
95800.     95850.      1.730                                      1030200201897 
95850.     95900.      1.730                                      1030200201898 
95900.     95950.      1.730                                      1030200201899 
95950.     96000.      1.725                                      1030200201900 
96000.     96050.      1.636                                      1030200201901 
96050.     96100.      1.636                                      1030200201902 
96100.     96150.      1.636                                      1030200201903 
96150.     96200.      1.636                                      1030200201904 
96200.     96250.      1.705                                      1030200201905 
96250.     96300.      1.733                                      1030200201906 
96300.     96350.      1.733                                      1030200201907 
96350.     96400.      1.733                                      1030200201908 
96400.     96450.      1.683                                      1030200201909 
96450.     96500.      1.595                                      1030200201910 
96500.     96550.      1.595                                      1030200201911 
96550.     96600.      1.595                                      1030200201912 
96600.     96650.      1.595                                      1030200201913 
96650.     96700.      1.708                                      1030200201914 
96700.     96750.      1.709                                      1030200201915 
96750.     96800.      1.709                                      1030200201916 
96800.     96850.      1.709                                      1030200201917 
96850.     96900.      1.640                                      1030200201918 
96900.     96950.      1.595                                      1030200201919 
96950.     97000.      1.595                                      1030200201920 
97000.     97050.      1.595                                      1030200201921 
97050.     97100.      1.600                                      1030200201922 
97100.     97150.      1.617                                      1030200201923 
97150.     97200.      1.617                                      1030200201924 
97200.     97250.      1.617                                      1030200201925 
97250.     97300.      1.617                                      1030200201926 
97300.     97350.      1.488                                      1030200201927 
97350.     97400.      1.454                                      1030200201928 
97400.     97450.      1.454                                      1030200201929 
97450.     97500.      1.454                                      1030200201930 
97500.     97550.      1.538                                      1030200201931 
97550.     97600.      1.687                                      1030200201932 
97600.     97650.      1.687                                      1030200201933 
97650.     97700.      1.687                                      1030200201934 
97700.     97750.      1.687                                      1030200201935 
97750.     97800.      1.797                                      1030200201936 
97800.     97850.      1.807                                      1030200201937 
97850.     97900.      1.807                                      1030200201938 
97900.     97950.      1.807                                      1030200201939 
97950.     98000.      1.709                                      1030200201940 
98000.     98050.      1.593                                      1030200201941 
98050.     98100.      1.593                                      1030200201942 
98100.     98150.      1.593                                      1030200201943 
98150.     98200.      1.593                                      1030200201944 
98200.     98250.      1.584                                      1030200201945 
98250.     98300.      1.584                                      1030200201946 
98300.     98350.      1.584                                      1030200201947 
98350.     98400.      1.584                                      1030200201948 
98400.     98450.      1.650                                      1030200201949 
98450.     98500.      1.718                                      1030200201950 
98500.     98550.      1.718                                      1030200201951 
98550.     98600.      1.718                                      1030200201952 
98600.     98650.      1.718                                      1030200201953 
98650.     98700.      1.738                                      1030200201954 
98700.     98750.      1.739                                      1030200201955 
98750.     98800.      1.739                                      1030200201956 
98800.     98850.      1.739                                      1030200201957 
98850.     98900.      1.752                                      1030200201958 
98900.     98950.      1.767                                      1030200201959 
98950.     99000.      1.767                                      1030200201960 
99000.     99050.      1.767                                      1030200201961 
99050.     99100.      1.767                                      1030200201962 
99100.     99150.      1.641                                      1030200201963 
99150.     99200.      1.631                                      1030200201964 
99200.     99250.      1.631                                      1030200201965 
99250.     99300.      1.631                                      1030200201966 
99300.     99350.      1.657                                      1030200201967 
99350.     99400.      1.702                                      1030200201968 
99400.     99450.      1.702                                      1030200201969 
99450.     99500.      1.702                                      1030200201970 
99500.     99550.      1.702                                      1030200201971 
99550.     99600.      1.631                                      1030200201972 
99600.     99650.      1.614                                      1030200201973 
99650.     99700.      1.614                                      1030200201974 
99700.     99750.      1.614                                      1030200201975 
99750.     99800.      1.594                                      1030200201976 
99800.     99850.      1.522                                      1030200201977 
99850.     99900.      1.522                                      1030200201978 
99900.     99950.      1.522                                      1030200201979 
99950.     100000.     1.522                                      1030200201980 
ENDDATA           1962          0                                 1030200201981 
ENDSUBENT         1980          0                                 1030200299999 
ENDENTRY             2          0                                 1030299999999 
