ENTRY            10404   20030207                             00001040400000001 
SUBENT        10404001   20030207                             00001040400100001 
BIB                 10         15                                 1040400100002 
INSTITUTE  (1USAISU,1USAMTR)                                      1040400100003 
REFERENCE  (T,SERPA,1970) Master's thesis                         1040400100004 
           (R,IN-1407,143,197012)                                 1040400100005 
AUTHOR     (M.R.Serpa)                                            1040400100006 
TITLE      Total neutron cross section on 94Nb                    1040400100007 
FACILITY   (CHOPF,1USAMTR) MTR fast chopper                       1040400100008 
METHOD     (TOF) Time-of-flight. 20-m flight path.                1040400100009 
DETECTOR   (PROPC) BF3 detector with 4096-multichannel time-of-   1040400100010 
            flight analyzer.                                      1040400100011 
CORRECTION Corrected for: background, contaminants, and dead time.1040400100012 
STATUS     No reply to author proof.                              1040400100013 
HISTORY    (19740609C)                                            1040400100014 
           (19760302U) INSTITUTE corrected                        1040400100015 
           (19830527A) Converted to REACTION formalism            1040400100016 
           (20030207A) Updated to new date formats, lower case.   1040400100017 
ENDBIB              15          0                                 1040400100018 
NOCOMMON             0          0                                 1040400100019 
ENDSUBENT           18          0                                 1040400199999 
SUBENT        10404002   20030207                             00001040400200001 
BIB                  5          8                                 1040400200002 
REACTION   (41-NB-94(N,TOT),,SIG)                                 1040400200003 
            Includes 95Nb contribution                            1040400200004 
SAMPLE     Isotopic composition of sample: 93Nb (90.8%),          1040400200005 
             94Nb (4.23%), 95Nb (0.11%), 95Mo (4.0%), 96Mo (1.0%).1040400200006 
ERR-ANALYS No information on uncertainties.                       1040400200007 
FLAG       (1.) Thick sample - 185.2 b/atom.                      1040400200008 
           (2.) Thin sample - 2222. b/atom.                       1040400200009 
STATUS     Data received on magnetic tape.                        1040400200010 
ENDBIB               8          0                                 1040400200011 
NOCOMMON             0          0                                 1040400200012 
DATA                 3        809                                 1040400200013 
EN         DATA       FLAG                                        1040400200014 
EV         B          NO-DIM                                      1040400200015 
   8.14      9.71      1.                                         1040400200016 
   8.15     13.99      1.                                         1040400200017 
   8.17     10.80      1.                                         1040400200018 
   8.18     13.54      1.                                         1040400200019 
   8.20     11.59      1.                                         1040400200020 
   8.22      7.99      1.                                         1040400200021 
   8.23     12.99      1.                                         1040400200022 
   8.25     10.80      1.                                         1040400200023 
   8.27     10.34      1.                                         1040400200024 
   8.28     12.70      1.                                         1040400200025 
   8.30     13.07      1.                                         1040400200026 
   8.31     11.92      1.                                         1040400200027 
   8.33     12.41      1.                                         1040400200028 
   8.35     13.02      1.                                         1040400200029 
   8.36     11.25      1.                                         1040400200030 
   8.38      8.99      1.                                         1040400200031 
   8.40     14.28      1.                                         1040400200032 
   8.41     12.73      1.                                         1040400200033 
   8.43     11.88      1.                                         1040400200034 
   8.45     15.64      1.                                         1040400200035 
   8.47     15.41      1.                                         1040400200036 
   8.48     10.40      1.                                         1040400200037 
   8.50      6.95      1.                                         1040400200038 
   8.52      8.70      1.                                         1040400200039 
   8.53     13.73      1.                                         1040400200040 
   8.55      9.93      1.                                         1040400200041 
   8.57     15.83      1.                                         1040400200042 
   8.59     11.42      1.                                         1040400200043 
   8.60     13.79      1.                                         1040400200044 
   8.62     10.25      1.                                         1040400200045 
   8.64     11.78      1.                                         1040400200046 
   8.66     12.59      1.                                         1040400200047 
   8.67     11.14      1.                                         1040400200048 
   8.69     15.26      1.                                         1040400200049 
   8.71     16.15      1.                                         1040400200050 
   8.73     11.93      1.                                         1040400200051 
   8.75     17.50      1.                                         1040400200052 
   8.76     14.08      1.                                         1040400200053 
   8.78     10.53      1.                                         1040400200054 
   8.80      7.70      1.                                         1040400200055 
   8.82     18.27      1.                                         1040400200056 
   8.84     14.44      1.                                         1040400200057 
   8.85     12.26      1.                                         1040400200058 
   8.87      8.55      1.                                         1040400200059 
   8.89     14.74      1.                                         1040400200060 
   8.91     12.85      1.                                         1040400200061 
   8.93     16.31      1.                                         1040400200062 
   8.95     13.03      1.                                         1040400200063 
   8.96     15.68      1.                                         1040400200064 
   8.98     14.79      1.                                         1040400200065 
   9.00     18.68      1.                                         1040400200066 
   9.02     12.17      1.                                         1040400200067 
   9.04     13.85      1.                                         1040400200068 
   9.06     16.24      1.                                         1040400200069 
   9.08     14.93      1.                                         1040400200070 
   9.10     15.56      1.                                         1040400200071 
   9.11     13.18      1.                                         1040400200072 
   9.13     15.31      1.                                         1040400200073 
   9.15     12.11      1.                                         1040400200074 
   9.17     14.33      1.                                         1040400200075 
   9.19     13.30      1.                                         1040400200076 
   9.21     17.59      1.                                         1040400200077 
   9.23      9.71      1.                                         1040400200078 
   9.25     13.37      1.                                         1040400200079 
   9.27     16.33      1.                                         1040400200080 
   9.29     13.09      1.                                         1040400200081 
   9.31      9.87      1.                                         1040400200082 
   9.33     17.58      1.                                         1040400200083 
   9.35      9.65      1.                                         1040400200084 
   9.37     13.42      1.                                         1040400200085 
   9.39      9.32      1.                                         1040400200086 
   9.41     12.59      1.                                         1040400200087 
   9.43     14.62      1.                                         1040400200088 
   9.45      7.58      1.                                         1040400200089 
   9.47     11.52      1.                                         1040400200090 
   9.49     11.82      1.                                         1040400200091 
   9.51     11.75      1.                                         1040400200092 
   9.53     16.69      1.                                         1040400200093 
   9.55     16.27      1.                                         1040400200094 
   9.57     13.17      1.                                         1040400200095 
   9.59     16.83      1.                                         1040400200096 
   9.61     21.55      1.                                         1040400200097 
   9.63     14.72      1.                                         1040400200098 
   9.65     13.79      1.                                         1040400200099 
   9.67     16.21      1.                                         1040400200100 
   9.69     23.04      1.                                         1040400200101 
   9.71     17.85      1.                                         1040400200102 
   9.73     15.53      1.                                         1040400200103 
   9.75     19.61      1.                                         1040400200104 
   9.78     13.31      1.                                         1040400200105 
   9.80     18.27      1.                                         1040400200106 
   9.82     16.70      1.                                         1040400200107 
   9.84     19.79      1.                                         1040400200108 
   9.86     20.19      1.                                         1040400200109 
   9.88     13.56      1.                                         1040400200110 
   9.90     16.67      1.                                         1040400200111 
   9.93     21.83      1.                                         1040400200112 
   9.95     21.70      1.                                         1040400200113 
   9.97     13.67      1.                                         1040400200114 
   9.99     16.05      1.                                         1040400200115 
  10.01     20.89      1.                                         1040400200116 
  10.03     19.96      1.                                         1040400200117 
  10.06     23.29      1.                                         1040400200118 
  10.08     20.94      1.                                         1040400200119 
  10.10     16.30      1.                                         1040400200120 
  10.12     20.35      1.                                         1040400200121 
  10.15     21.03      1.                                         1040400200122 
  10.17     19.39      1.                                         1040400200123 
  10.19     15.19      1.                                         1040400200124 
  10.21     13.10      1.                                         1040400200125 
  10.24     16.02      1.                                         1040400200126 
  10.26     12.08      1.                                         1040400200127 
  10.28     13.34      1.                                         1040400200128 
  10.30     12.57      1.                                         1040400200129 
  10.33     10.61      1.                                         1040400200130 
  10.35     11.41      1.                                         1040400200131 
  10.37     10.56      1.                                         1040400200132 
  10.40     12.30      1.                                         1040400200133 
  10.42     24.15      1.                                         1040400200134 
  10.44     21.44      1.                                         1040400200135 
  10.47     28.73      1.                                         1040400200136 
  10.49     29.89      1.                                         1040400200137 
  10.51     39.30      1.                                         1040400200138 
  10.54     38.26      1.                                         1040400200139 
  10.56     38.00      1.                                         1040400200140 
  10.58     40.58      1.                                         1040400200141 
  10.61     42.79      1.                                         1040400200142 
  10.63     44.49      1.                                         1040400200143 
  10.66     48.63      1.                                         1040400200144 
  10.68     49.46      1.                                         1040400200145 
  10.70     54.12      1.                                         1040400200146 
  10.73     55.34      1.                                         1040400200147 
  10.75     57.26      1.                                         1040400200148 
  10.78     57.98      1.                                         1040400200149 
  10.80     63.09      1.                                         1040400200150 
  10.83     69.82      1.                                         1040400200151 
  10.85     75.17      1.                                         1040400200152 
  10.88     75.49      1.                                         1040400200153 
  10.90     74.57      1.                                         1040400200154 
  10.93     89.14      1.                                         1040400200155 
  10.95     90.21      1.                                         1040400200156 
  10.98    106.79      1.                                         1040400200157 
  11.00    115.21      1.                                         1040400200158 
  11.03    122.86      1.                                         1040400200159 
  11.05    139.33      1.                                         1040400200160 
  11.08    146.57      1.                                         1040400200161 
  11.10    167.00      1.                                         1040400200162 
  11.13    190.65      1.                                         1040400200163 
  11.15    213.67      1.                                         1040400200164 
  11.18    239.76      1.                                         1040400200165 
  11.21    268.90      1.                                         1040400200166 
  11.23    309.61      1.                                         1040400200167 
  11.28     341.73     2.                                         1040400200168 
  11.31     384.06     2.                                         1040400200169 
  11.33     466.30     2.                                         1040400200170 
  11.36     532.99     2.                                         1040400200171 
  11.39     695.89     2.                                         1040400200172 
  11.41     891.09     2.                                         1040400200173 
  11.44     902.07     2.                                         1040400200174 
  11.47    1267.54     2.                                         1040400200175 
  11.49    1561.47     2.                                         1040400200176 
  11.52    1772.37     2.                                         1040400200177 
  11.55    1993.70     2.                                         1040400200178 
  11.57    2223.51     2.                                         1040400200179 
  11.60    2433.04     2.                                         1040400200180 
  11.63    2260.72     2.                                         1040400200181 
  11.66    2214.15     2.                                         1040400200182 
  11.68    2174.97     2.                                         1040400200183 
  11.71    1786.31     2.                                         1040400200184 
  11.74    1569.86     2.                                         1040400200185 
  11.77    1164.55     2.                                         1040400200186 
  11.80    1140.78     2.                                         1040400200187 
  11.82     757.90     2.                                         1040400200188 
  11.85     620.67     2.                                         1040400200189 
  11.88     470.94     2.                                         1040400200190 
  11.91     434.18     2.                                         1040400200191 
  11.94     327.68     2.                                         1040400200192 
  11.97     250.90     2.                                         1040400200193 
  11.99     237.66     2.                                         1040400200194 
  12.02     229.63     2.                                         1040400200195 
  12.05    169.80      1.                                         1040400200196 
  12.08    144.32      1.                                         1040400200197 
  12.11    137.75      1.                                         1040400200198 
  12.14    119.73      1.                                         1040400200199 
  12.17    109.17      1.                                         1040400200200 
  12.20    106.03      1.                                         1040400200201 
  12.23     89.44      1.                                         1040400200202 
  12.26     83.14      1.                                         1040400200203 
  12.29     77.33      1.                                         1040400200204 
  12.32     67.04      1.                                         1040400200205 
  12.35     63.19      1.                                         1040400200206 
  12.38     65.96      1.                                         1040400200207 
  12.41     54.75      1.                                         1040400200208 
  12.44     57.78      1.                                         1040400200209 
  12.47     50.81      1.                                         1040400200210 
  12.50     51.48      1.                                         1040400200211 
  12.53     46.03      1.                                         1040400200212 
  12.56     44.47      1.                                         1040400200213 
  12.59     44.13      1.                                         1040400200214 
  12.62     46.36      1.                                         1040400200215 
  12.66     42.25      1.                                         1040400200216 
  12.69     39.84      1.                                         1040400200217 
  12.72     33.79      1.                                         1040400200218 
  12.75     35.32      1.                                         1040400200219 
  12.78     32.24      1.                                         1040400200220 
  12.81     36.27      1.                                         1040400200221 
  12.84     28.44      1.                                         1040400200222 
  12.88     30.93      1.                                         1040400200223 
  12.91     34.17      1.                                         1040400200224 
  12.94     28.45      1.                                         1040400200225 
  12.97     29.59      1.                                         1040400200226 
  13.01     28.71      1.                                         1040400200227 
  13.04     25.11      1.                                         1040400200228 
  13.07     26.69      1.                                         1040400200229 
  13.10     26.63      1.                                         1040400200230 
  13.14     28.02      1.                                         1040400200231 
  13.17     24.90      1.                                         1040400200232 
  13.20     24.42      1.                                         1040400200233 
  13.24     24.20      1.                                         1040400200234 
  13.27     21.77      1.                                         1040400200235 
  13.30     24.55      1.                                         1040400200236 
  13.34     27.50      1.                                         1040400200237 
  13.37     26.67      1.                                         1040400200238 
  13.40     31.07      1.                                         1040400200239 
  13.44     25.51      1.                                         1040400200240 
  13.47     23.80      1.                                         1040400200241 
  13.51     26.83      1.                                         1040400200242 
  13.54     25.79      1.                                         1040400200243 
  13.57     22.07      1.                                         1040400200244 
  13.61     20.43      1.                                         1040400200245 
  13.64     16.54      1.                                         1040400200246 
  13.68     15.59      1.                                         1040400200247 
  13.71     20.01      1.                                         1040400200248 
  13.75     18.09      1.                                         1040400200249 
  13.78     14.51      1.                                         1040400200250 
  13.82     11.90      1.                                         1040400200251 
  13.86     12.11      1.                                         1040400200252 
  13.89     14.88      1.                                         1040400200253 
  13.93     10.65      1.                                         1040400200254 
  13.96     16.78      1.                                         1040400200255 
  14.00     18.89      1.                                         1040400200256 
  14.03     20.96      1.                                         1040400200257 
  14.07     15.32      1.                                         1040400200258 
  14.11     13.38      1.                                         1040400200259 
  14.15     13.26      1.                                         1040400200260 
  14.18     15.12      1.                                         1040400200261 
  14.22     11.33      1.                                         1040400200262 
  14.26     13.78      1.                                         1040400200263 
  14.29     16.18      1.                                         1040400200264 
  14.33     11.18      1.                                         1040400200265 
  14.37     12.30      1.                                         1040400200266 
  14.41     11.92      1.                                         1040400200267 
  14.44     14.28      1.                                         1040400200268 
  14.48     13.36      1.                                         1040400200269 
  14.52     13.20      1.                                         1040400200270 
  14.56     12.32      1.                                         1040400200271 
  14.60     14.45      1.                                         1040400200272 
  14.64      8.29      1.                                         1040400200273 
  14.67     13.43      1.                                         1040400200274 
  14.71     10.62      1.                                         1040400200275 
  14.75      7.58      1.                                         1040400200276 
  14.79     10.69      1.                                         1040400200277 
  14.83      8.22      1.                                         1040400200278 
  14.87     12.29      1.                                         1040400200279 
  14.91     15.27      1.                                         1040400200280 
  14.95      7.74      1.                                         1040400200281 
  14.99     11.31      1.                                         1040400200282 
  15.03     10.45      1.                                         1040400200283 
  15.07      9.83      1.                                         1040400200284 
  15.11     11.36      1.                                         1040400200285 
  15.15     13.39      1.                                         1040400200286 
  15.19     14.44      1.                                         1040400200287 
  15.23     13.83      1.                                         1040400200288 
  15.28     13.08      1.                                         1040400200289 
  15.32     13.96      1.                                         1040400200290 
  15.36     10.37      1.                                         1040400200291 
  15.40     11.22      1.                                         1040400200292 
  15.44     11.76      1.                                         1040400200293 
  15.48     13.56      1.                                         1040400200294 
  15.53     10.56      1.                                         1040400200295 
  15.57     11.76      1.                                         1040400200296 
  15.61      7.44      1.                                         1040400200297 
  15.65     11.62      1.                                         1040400200298 
  15.70     13.95      1.                                         1040400200299 
  15.74      5.39      1.                                         1040400200300 
  15.78     12.65      1.                                         1040400200301 
  15.83      6.53      1.                                         1040400200302 
  15.87     15.24      1.                                         1040400200303 
  15.91      9.43      1.                                         1040400200304 
  15.96     10.31      1.                                         1040400200305 
  16.00      8.84      1.                                         1040400200306 
  16.05     10.65      1.                                         1040400200307 
  16.09     12.48      1.                                         1040400200308 
  16.14     10.78      1.                                         1040400200309 
  16.18     15.16      1.                                         1040400200310 
  16.23     10.80      1.                                         1040400200311 
  16.27      5.90      1.                                         1040400200312 
  16.32     16.18      1.                                         1040400200313 
  16.36     10.26      1.                                         1040400200314 
  16.41     13.03      1.                                         1040400200315 
  16.45      9.59      1.                                         1040400200316 
  16.50     14.34      1.                                         1040400200317 
  16.55      8.67      1.                                         1040400200318 
  16.59      7.19      1.                                         1040400200319 
  16.64      8.70      1.                                         1040400200320 
  16.69     12.41      1.                                         1040400200321 
  16.74     11.15      1.                                         1040400200322 
  16.78      9.91      1.                                         1040400200323 
  16.83     10.33      1.                                         1040400200324 
  16.88      9.11      1.                                         1040400200325 
  16.93      9.03      1.                                         1040400200326 
  16.97     14.24      1.                                         1040400200327 
  17.02     10.88      1.                                         1040400200328 
  17.07      8.00      1.                                         1040400200329 
  17.12     10.19      1.                                         1040400200330 
  17.17     12.63      1.                                         1040400200331 
  17.22     10.53      1.                                         1040400200332 
  17.27     11.43      1.                                         1040400200333 
  17.32      7.21      1.                                         1040400200334 
  17.37      9.62      1.                                         1040400200335 
  17.42      7.35      1.                                         1040400200336 
  17.47     12.48      1.                                         1040400200337 
  17.52      7.36      1.                                         1040400200338 
  17.57     13.49      1.                                         1040400200339 
  17.62     10.63      1.                                         1040400200340 
  17.67      6.76      1.                                         1040400200341 
  17.72      2.98      1.                                         1040400200342 
  17.78      8.88      1.                                         1040400200343 
  17.83      9.28      1.                                         1040400200344 
  17.88      6.90      1.                                         1040400200345 
  17.93      3.67      1.                                         1040400200346 
  17.99      7.00      1.                                         1040400200347 
  18.04      8.81      1.                                         1040400200348 
  18.09      2.88      1.                                         1040400200349 
  18.14      4.60      1.                                         1040400200350 
  18.20      7.39      1.                                         1040400200351 
  18.25      5.41      1.                                         1040400200352 
  18.31      1.69      1.                                         1040400200353 
  18.36     -0.93      1.                                         1040400200354 
  18.41     -7.92      1.                                         1040400200355 
  18.47     -6.01      1.                                         1040400200356 
  18.52    -11.42      1.                                         1040400200357 
  18.58    -14.88      1.                                         1040400200358 
  18.64    -22.46      1.                                         1040400200359 
  18.69    -30.04      1.                                         1040400200360 
  18.75    -28.82      1.                                         1040400200361 
  18.80    -34.30      1.                                         1040400200362 
  18.86    -31.96      1.                                         1040400200363 
  18.92    -34.53      1.                                         1040400200364 
  18.97    -25.28      1.                                         1040400200365 
  19.03    -15.32      1.                                         1040400200366 
  19.09     -9.42      1.                                         1040400200367 
  19.15     -9.44      1.                                         1040400200368 
  19.20     -5.52      1.                                         1040400200369 
  19.26     -0.18      1.                                         1040400200370 
  19.32     -0.78      1.                                         1040400200371 
  19.38      4.16      1.                                         1040400200372 
  19.44      3.62      1.                                         1040400200373 
  19.50      4.56      1.                                         1040400200374 
  19.56      1.45      1.                                         1040400200375 
  19.62      6.22      1.                                         1040400200376 
  19.68     10.20      1.                                         1040400200377 
  19.74      7.40      1.                                         1040400200378 
  19.80      7.16      1.                                         1040400200379 
  19.86      6.04      1.                                         1040400200380 
  19.92      6.37      1.                                         1040400200381 
  19.98      1.71      1.                                         1040400200382 
  20.05     10.38      1.                                         1040400200383 
  20.11     13.02      1.                                         1040400200384 
  20.17      7.44      1.                                         1040400200385 
  20.23      6.16      1.                                         1040400200386 
  20.30      7.79      1.                                         1040400200387 
  20.36      6.24      1.                                         1040400200388 
  20.42      8.31      1.                                         1040400200389 
  20.49     13.97      1.                                         1040400200390 
  20.55      7.57      1.                                         1040400200391 
  20.62      4.42      1.                                         1040400200392 
  20.68      6.28      1.                                         1040400200393 
  20.75     11.16      1.                                         1040400200394 
  20.81      5.14      1.                                         1040400200395 
  20.88      7.21      1.                                         1040400200396 
  20.94      2.84      1.                                         1040400200397 
  21.01     -3.83      1.                                         1040400200398 
  21.08     -0.98      1.                                         1040400200399 
  21.14      1.24      1.                                         1040400200400 
  21.21      4.47      1.                                         1040400200401 
  21.28      5.32      1.                                         1040400200402 
  21.35      9.84      1.                                         1040400200403 
  21.41      6.74      1.                                         1040400200404 
  21.48     10.36      1.                                         1040400200405 
  21.55      6.51      1.                                         1040400200406 
  21.62      9.82      1.                                         1040400200407 
  21.69     12.85      1.                                         1040400200408 
  21.76      9.04      1.                                         1040400200409 
  21.83      8.20      1.                                         1040400200410 
  21.90      8.85      1.                                         1040400200411 
  21.97     16.90      1.                                         1040400200412 
  22.05     15.20      1.                                         1040400200413 
  22.12     14.57      1.                                         1040400200414 
  22.19     18.99      1.                                         1040400200415 
  22.26     28.46      1.                                         1040400200416 
  22.34     39.30      1.                                         1040400200417 
  22.41     39.78      1.                                         1040400200418 
  22.48     54.61      1.                                         1040400200419 
  22.56     88.12      1.                                         1040400200420 
  22.63    104.23      1.                                         1040400200421 
  22.70    127.87      1.                                         1040400200422 
  22.78    137.20      1.                                         1040400200423 
  22.86    120.46      1.                                         1040400200424 
  22.93    104.47      1.                                         1040400200425 
  23.01     76.45      1.                                         1040400200426 
  23.08     53.58      1.                                         1040400200427 
  23.16     39.69      1.                                         1040400200428 
  23.24     30.09      1.                                         1040400200429 
  23.32     22.42      1.                                         1040400200430 
  23.39     12.93      1.                                         1040400200431 
  23.47     11.19      1.                                         1040400200432 
  23.55     12.03      1.                                         1040400200433 
  23.63     10.26      1.                                         1040400200434 
  23.71      8.91      1.                                         1040400200435 
  23.79      7.03      1.                                         1040400200436 
  23.87     -0.44      1.                                         1040400200437 
  23.95     -1.48      1.                                         1040400200438 
  24.03      6.55      1.                                         1040400200439 
  24.11      4.17      1.                                         1040400200440 
  24.20      0.02      1.                                         1040400200441 
  24.28      7.59      1.                                         1040400200442 
  24.36      9.37      1.                                         1040400200443 
  24.44      5.89      1.                                         1040400200444 
  24.53     11.37      1.                                         1040400200445 
  24.61     11.51      1.                                         1040400200446 
  24.70     10.90      1.                                         1040400200447 
  24.78     12.16      1.                                         1040400200448 
  24.87      7.67      1.                                         1040400200449 
  24.95      2.03      1.                                         1040400200450 
  25.04     11.83      1.                                         1040400200451 
  25.13     10.17      1.                                         1040400200452 
  25.21     11.60      1.                                         1040400200453 
  25.30      8.17      1.                                         1040400200454 
  25.39     10.97      1.                                         1040400200455 
  25.48      8.86      1.                                         1040400200456 
  25.57     11.12      1.                                         1040400200457 
  25.66      8.49      1.                                         1040400200458 
  25.75      8.09      1.                                         1040400200459 
  25.84     10.64      1.                                         1040400200460 
  25.93      8.86      1.                                         1040400200461 
  26.02     10.71      1.                                         1040400200462 
  26.11     10.50      1.                                         1040400200463 
  26.21     14.08      1.                                         1040400200464 
  26.30     10.88      1.                                         1040400200465 
  26.39     13.86      1.                                         1040400200466 
  26.49     11.36      1.                                         1040400200467 
  26.58     12.71      1.                                         1040400200468 
  26.68      8.70      1.                                         1040400200469 
  26.77     14.25      1.                                         1040400200470 
  26.87     19.46      1.                                         1040400200471 
  26.96     20.24      1.                                         1040400200472 
  27.06     17.49      1.                                         1040400200473 
  27.16     17.07      1.                                         1040400200474 
  27.26     16.53      1.                                         1040400200475 
  27.36     15.91      1.                                         1040400200476 
  27.46     15.70      1.                                         1040400200477 
  27.56     10.06      1.                                         1040400200478 
  27.66     12.63      1.                                         1040400200479 
  27.76     14.96      1.                                         1040400200480 
  27.86      9.80      1.                                         1040400200481 
  27.96     14.18      1.                                         1040400200482 
  28.06      9.61      1.                                         1040400200483 
  28.17      4.53      1.                                         1040400200484 
  28.27      7.87      1.                                         1040400200485 
  28.38     10.46      1.                                         1040400200486 
  28.48      5.82      1.                                         1040400200487 
  28.58      6.88      1.                                         1040400200488 
  28.69     10.45      1.                                         1040400200489 
  28.80     11.29      1.                                         1040400200490 
  28.90      5.67      1.                                         1040400200491 
  29.01      9.27      1.                                         1040400200492 
  29.12      8.89      1.                                         1040400200493 
  29.23      5.10      1.                                         1040400200494 
  29.34     10.32      1.                                         1040400200495 
  29.45      8.77      1.                                         1040400200496 
  29.56      7.65      1.                                         1040400200497 
  29.67      6.61      1.                                         1040400200498 
  29.78      8.57      1.                                         1040400200499 
  29.90     10.19      1.                                         1040400200500 
  30.01      8.00      1.                                         1040400200501 
  30.12      6.74      1.                                         1040400200502 
  30.24     10.84      1.                                         1040400200503 
  30.35     10.50      1.                                         1040400200504 
  30.47      9.66      1.                                         1040400200505 
  30.59     14.95      1.                                         1040400200506 
  30.70      7.68      1.                                         1040400200507 
  30.82      7.43      1.                                         1040400200508 
  30.94     10.90      1.                                         1040400200509 
  31.06      7.69      1.                                         1040400200510 
  31.18     13.00      1.                                         1040400200511 
  31.30     11.19      1.                                         1040400200512 
  31.42      8.51      1.                                         1040400200513 
  31.54     10.42      1.                                         1040400200514 
  31.67     12.04      1.                                         1040400200515 
  31.79      5.27      1.                                         1040400200516 
  31.91      9.73      1.                                         1040400200517 
  32.04      9.51      1.                                         1040400200518 
  32.16      8.82      1.                                         1040400200519 
  32.29      8.97      1.                                         1040400200520 
  32.42      9.51      1.                                         1040400200521 
  32.55     10.45      1.                                         1040400200522 
  32.68      5.34      1.                                         1040400200523 
  32.81     11.36      1.                                         1040400200524 
  32.94     10.72      1.                                         1040400200525 
  33.07      5.69      1.                                         1040400200526 
  33.20     10.09      1.                                         1040400200527 
  33.33      9.90      1.                                         1040400200528 
  33.46      5.89      1.                                         1040400200529 
  33.60     14.67      1.                                         1040400200530 
  33.73      6.63      1.                                         1040400200531 
  33.87     10.18      1.                                         1040400200532 
  34.01      9.44      1.                                         1040400200533 
  34.14      5.65      1.                                         1040400200534 
  34.28      8.41      1.                                         1040400200535 
  34.42      5.58      1.                                         1040400200536 
  34.56      9.96      1.                                         1040400200537 
  34.70      4.87      1.                                         1040400200538 
  34.84      6.06      1.                                         1040400200539 
  34.99      3.76      1.                                         1040400200540 
  35.13      2.57      1.                                         1040400200541 
  35.27      3.47      1.                                         1040400200542 
  35.42      0.09      1.                                         1040400200543 
  35.57      9.86      1.                                         1040400200544 
  35.71      7.50      1.                                         1040400200545 
  35.86      1.58      1.                                         1040400200546 
  36.01      4.76      1.                                         1040400200547 
  36.16      6.85      1.                                         1040400200548 
  36.31     10.39      1.                                         1040400200549 
  36.46     10.22      1.                                         1040400200550 
  36.62     12.92      1.                                         1040400200551 
  36.77     13.45      1.                                         1040400200552 
  36.93      9.59      1.                                         1040400200553 
  37.08      9.89      1.                                         1040400200554 
  37.24     11.94      1.                                         1040400200555 
  37.40      7.85      1.                                         1040400200556 
  37.55      8.19      1.                                         1040400200557 
  37.71      8.94      1.                                         1040400200558 
  37.87     11.97      1.                                         1040400200559 
  38.04     10.63      1.                                         1040400200560 
  38.20      9.98      1.                                         1040400200561 
  38.36     11.31      1.                                         1040400200562 
  38.53     14.96      1.                                         1040400200563 
  38.69      4.48      1.                                         1040400200564 
  38.86     -0.59      1.                                         1040400200565 
  39.03     -1.89      1.                                         1040400200566 
  39.20     -3.42      1.                                         1040400200567 
  39.37      2.16      1.                                         1040400200568 
  39.54      6.27      1.                                         1040400200569 
  39.71     12.80      1.                                         1040400200570 
  39.89     12.47      1.                                         1040400200571 
  40.06     16.04      1.                                         1040400200572 
  40.24     16.71      1.                                         1040400200573 
  40.41     17.35      1.                                         1040400200574 
  40.59     15.83      1.                                         1040400200575 
  40.77     17.11      1.                                         1040400200576 
  40.95     13.72      1.                                         1040400200577 
  41.13     27.29      1.                                         1040400200578 
  41.32     21.20      1.                                         1040400200579 
  41.50     27.46      1.                                         1040400200580 
  41.69     31.34      1.                                         1040400200581 
  41.87     41.47      1.                                         1040400200582 
  42.06     49.21      1.                                         1040400200583 
  42.25     52.68      1.                                         1040400200584 
  42.44     64.03      1.                                         1040400200585 
  42.63     75.23      1.                                         1040400200586 
  42.83     91.45      1.                                         1040400200587 
  43.02    107.31      1.                                         1040400200588 
  43.22    139.94      1.                                         1040400200589 
  43.41    187.04      1.                                         1040400200590 
  43.61    252.50      1.                                         1040400200591 
  43.81    344.32      1.                                         1040400200592 
  44.20     678.47     2.                                         1040400200593 
  44.40     959.91     2.                                         1040400200594 
  44.60    1535.59     2.                                         1040400200595 
  44.81    2007.31     2.                                         1040400200596 
  45.02    1931.07     2.                                         1040400200597 
  45.23    1470.89     2.                                         1040400200598 
  45.44    1048.25     2.                                         1040400200599 
  45.65     608.87     2.                                         1040400200600 
  45.67    243.34      1.                                         1040400200601 
  45.89    187.65      1.                                         1040400200602 
  46.10    156.42      1.                                         1040400200603 
  46.32    120.45      1.                                         1040400200604 
  46.54     97.96      1.                                         1040400200605 
  46.76     83.53      1.                                         1040400200606 
  46.98     72.62      1.                                         1040400200607 
  47.21     60.39      1.                                         1040400200608 
  47.43     52.77      1.                                         1040400200609 
  47.66     50.02      1.                                         1040400200610 
  47.89     41.11      1.                                         1040400200611 
  48.12     39.89      1.                                         1040400200612 
  48.35     35.66      1.                                         1040400200613 
  48.58     30.26      1.                                         1040400200614 
  48.82     28.44      1.                                         1040400200615 
  49.05     29.21      1.                                         1040400200616 
  49.29     24.31      1.                                         1040400200617 
  49.53     25.21      1.                                         1040400200618 
  49.77     23.77      1.                                         1040400200619 
  50.02     26.14      1.                                         1040400200620 
  50.26     20.65      1.                                         1040400200621 
  50.51     21.09      1.                                         1040400200622 
  50.76     17.44      1.                                         1040400200623 
  51.01     20.66      1.                                         1040400200624 
  51.26     18.43      1.                                         1040400200625 
  51.52     12.69      1.                                         1040400200626 
  51.77     13.82      1.                                         1040400200627 
  52.03     18.02      1.                                         1040400200628 
  52.29     14.54      1.                                         1040400200629 
  52.56     17.10      1.                                         1040400200630 
  52.82     13.07      1.                                         1040400200631 
  53.09     18.27      1.                                         1040400200632 
  53.36     19.13      1.                                         1040400200633 
  53.63     16.37      1.                                         1040400200634 
  53.90     14.58      1.                                         1040400200635 
  54.17     18.62      1.                                         1040400200636 
  54.45     16.16      1.                                         1040400200637 
  54.73     12.52      1.                                         1040400200638 
  55.01     11.95      1.                                         1040400200639 
  55.29     17.92      1.                                         1040400200640 
  55.58     16.89      1.                                         1040400200641 
  55.87     13.85      1.                                         1040400200642 
  56.16     13.59      1.                                         1040400200643 
  56.45     10.95      1.                                         1040400200644 
  56.74     11.27      1.                                         1040400200645 
  57.04     12.35      1.                                         1040400200646 
  57.34     14.09      1.                                         1040400200647 
  57.64     16.72      1.                                         1040400200648 
  57.94     16.96      1.                                         1040400200649 
  58.25     10.58      1.                                         1040400200650 
  58.56     16.89      1.                                         1040400200651 
  58.87     13.65      1.                                         1040400200652 
  59.18     16.40      1.                                         1040400200653 
  59.50     11.73      1.                                         1040400200654 
  59.82     13.23      1.                                         1040400200655 
  60.14     13.97      1.                                         1040400200656 
  60.46     11.60      1.                                         1040400200657 
  60.79     12.76      1.                                         1040400200658 
  61.12      8.32      1.                                         1040400200659 
  61.45      8.51      1.                                         1040400200660 
  61.79     18.37      1.                                         1040400200661 
  62.12      9.78      1.                                         1040400200662 
  62.46     13.56      1.                                         1040400200663 
  62.81     11.39      1.                                         1040400200664 
  63.15      9.61      1.                                         1040400200665 
  63.50     12.69      1.                                         1040400200666 
  63.85      7.82      1.                                         1040400200667 
  64.21      8.47      1.                                         1040400200668 
  64.56     12.06      1.                                         1040400200669 
  64.92      8.91      1.                                         1040400200670 
  65.29     13.80      1.                                         1040400200671 
  65.65     15.16      1.                                         1040400200672 
  66.02     10.77      1.                                         1040400200673 
  66.40      7.20      1.                                         1040400200674 
  66.77     12.42      1.                                         1040400200675 
  67.15      7.87      1.                                         1040400200676 
  67.53     10.62      1.                                         1040400200677 
  67.92      6.73      1.                                         1040400200678 
  68.31     12.92      1.                                         1040400200679 
  68.70      8.56      1.                                         1040400200680 
  69.09      8.91      1.                                         1040400200681 
  69.49     11.10      1.                                         1040400200682 
  69.90     11.66      1.                                         1040400200683 
  70.30     10.75      1.                                         1040400200684 
  70.71      9.98      1.                                         1040400200685 
  71.12     10.13      1.                                         1040400200686 
  71.54     11.78      1.                                         1040400200687 
  71.96      9.57      1.                                         1040400200688 
  72.38      5.04      1.                                         1040400200689 
  72.81     10.70      1.                                         1040400200690 
  73.24      8.59      1.                                         1040400200691 
  73.68     11.86      1.                                         1040400200692 
  74.12      7.46      1.                                         1040400200693 
  74.56      7.77      1.                                         1040400200694 
  75.01     15.57      1.                                         1040400200695 
  75.46      8.89      1.                                         1040400200696 
  75.92     10.17      1.                                         1040400200697 
  76.38     13.43      1.                                         1040400200698 
  76.84     16.36      1.                                         1040400200699 
  77.31      3.76      1.                                         1040400200700 
  77.78     10.85      1.                                         1040400200701 
  78.26     16.58      1.                                         1040400200702 
  78.74     15.20      1.                                         1040400200703 
  79.22      9.44      1.                                         1040400200704 
  79.71     11.72      1.                                         1040400200705 
  80.21     14.91      1.                                         1040400200706 
  80.70     10.98      1.                                         1040400200707 
  81.21     10.68      1.                                         1040400200708 
  81.72     12.33      1.                                         1040400200709 
  82.23      9.27      1.                                         1040400200710 
  82.75      9.93      1.                                         1040400200711 
  83.27      9.15      1.                                         1040400200712 
  83.80     11.87      1.                                         1040400200713 
  84.33      5.04      1.                                         1040400200714 
  84.87      8.31      1.                                         1040400200715 
  85.42     10.47      1.                                         1040400200716 
  85.97      6.65      1.                                         1040400200717 
  86.52      5.75      1.                                         1040400200718 
  87.08     12.86      1.                                         1040400200719 
  87.64      7.56      1.                                         1040400200720 
  88.21     12.30      1.                                         1040400200721 
  88.79     10.39      1.                                         1040400200722 
  89.37      4.98      1.                                         1040400200723 
  89.96     10.63      1.                                         1040400200724 
  90.55      9.56      1.                                         1040400200725 
  91.15      8.81      1.                                         1040400200726 
  91.75      6.36      1.                                         1040400200727 
  92.37      7.28      1.                                         1040400200728 
  92.98     11.77      1.                                         1040400200729 
  93.61      9.75      1.                                         1040400200730 
  94.23      9.47      1.                                         1040400200731 
  94.87      6.92      1.                                         1040400200732 
  95.51     11.28      1.                                         1040400200733 
  96.16     11.09      1.                                         1040400200734 
  96.82     11.16      1.                                         1040400200735 
  97.48      6.90      1.                                         1040400200736 
  98.15      7.04      1.                                         1040400200737 
  98.82      5.43      1.                                         1040400200738 
  99.50      4.87      1.                                         1040400200739 
 100.20     11.87      1.                                         1040400200740 
 100.89      8.86      1.                                         1040400200741 
 101.60      8.17      1.                                         1040400200742 
 102.31      9.94      1.                                         1040400200743 
 103.03      9.62      1.                                         1040400200744 
 103.76      3.05      1.                                         1040400200745 
 104.49      7.40      1.                                         1040400200746 
 105.24      8.46      1.                                         1040400200747 
 105.99      7.53      1.                                         1040400200748 
 106.74     11.54      1.                                         1040400200749 
 107.51     13.37      1.                                         1040400200750 
 108.29     11.09      1.                                         1040400200751 
 109.07      7.74      1.                                         1040400200752 
 109.86     10.83      1.                                         1040400200753 
 110.66     10.37      1.                                         1040400200754 
 111.47     12.33      1.                                         1040400200755 
 112.29     10.70      1.                                         1040400200756 
 113.12      3.78      1.                                         1040400200757 
 113.96      5.89      1.                                         1040400200758 
 114.80      8.15      1.                                         1040400200759 
 115.66      7.55      1.                                         1040400200760 
 116.52      7.33      1.                                         1040400200761 
 117.40      4.42      1.                                         1040400200762 
 118.28      9.09      1.                                         1040400200763 
 119.18      9.66      1.                                         1040400200764 
 120.08     11.69      1.                                         1040400200765 
 121.00      6.47      1.                                         1040400200766 
 121.92     11.53      1.                                         1040400200767 
 122.86     10.41      1.                                         1040400200768 
 123.81     11.10      1.                                         1040400200769 
 124.76      7.63      1.                                         1040400200770 
 125.73     15.24      1.                                         1040400200771 
 126.71     20.97      1.                                         1040400200772 
 127.71     33.23      1.                                         1040400200773 
 128.71     63.20      1.                                         1040400200774 
 129.73    109.76      1.                                         1040400200775 
 130.75    128.05      1.                                         1040400200776 
 131.79    105.43      1.                                         1040400200777 
 132.85     58.97      1.                                         1040400200778 
 133.91     31.41      1.                                         1040400200779 
 134.99     18.86      1.                                         1040400200780 
 136.08     14.52      1.                                         1040400200781 
 137.19     17.16      1.                                         1040400200782 
 138.30     15.47      1.                                         1040400200783 
 139.44     10.59      1.                                         1040400200784 
 140.58      7.73      1.                                         1040400200785 
 141.74     11.34      1.                                         1040400200786 
 142.92      7.37      1.                                         1040400200787 
 144.10     14.13      1.                                         1040400200788 
 145.31     11.72      1.                                         1040400200789 
 146.53     11.51      1.                                         1040400200790 
 147.76     10.33      1.                                         1040400200791 
 149.01     10.94      1.                                         1040400200792 
 150.28     11.74      1.                                         1040400200793 
 151.56     13.72      1.                                         1040400200794 
 152.86     12.01      1.                                         1040400200795 
 154.17     11.71      1.                                         1040400200796 
 155.51     17.92      1.                                         1040400200797 
 156.86     21.44      1.                                         1040400200798 
 158.22     26.47      1.                                         1040400200799 
 159.61     23.65      1.                                         1040400200800 
 161.01     22.00      1.                                         1040400200801 
 162.44     17.51      1.                                         1040400200802 
 163.88     14.89      1.                                         1040400200803 
 165.34     11.78      1.                                         1040400200804 
 166.82      8.70      1.                                         1040400200805 
 168.32     11.15      1.                                         1040400200806 
 169.84     12.10      1.                                         1040400200807 
 171.38      8.10      1.                                         1040400200808 
 172.94      7.32      1.                                         1040400200809 
 174.53     10.68      1.                                         1040400200810 
 176.13     12.77      1.                                         1040400200811 
 177.76     18.79      1.                                         1040400200812 
 179.41     24.06      1.                                         1040400200813 
 181.08     36.99      1.                                         1040400200814 
 182.78     42.02      1.                                         1040400200815 
 184.50     31.07      1.                                         1040400200816 
 186.25     24.32      1.                                         1040400200817 
 188.02     17.27      1.                                         1040400200818 
 189.81     12.65      1.                                         1040400200819 
 191.64     19.80      1.                                         1040400200820 
 193.48     10.86      1.                                         1040400200821 
 195.36     15.77      1.                                         1040400200822 
 197.26     12.94      1.                                         1040400200823 
 199.19     17.20      1.                                         1040400200824 
ENDDATA            811          0                                 1040400200825 
ENDSUBENT          824          0                                 1040400299999 
SUBENT        10404003   20030207                             00001040400300001 
BIB                  4          7                                 1040400300002 
REACTION   (41-NB-94(N,TOT),,SIG)                                 1040400300003 
            Includes 95Nb contribution                            1040400300004 
SAMPLE     Isotopic composition of sample: 93Nb (90.8%),          1040400300005 
             94Nb (4.23%), 95Nb (0.11%), 95Mo (4.0%), 96Mo (1.0%).1040400300006 
           Sample thickness 185.2 b/atom.                         1040400300007 
ERR-ANALYS No information on uncertainties.                       1040400300008 
STATUS     Data received on magnetic tape.                        1040400300009 
ENDBIB               7          0                                 1040400300010 
NOCOMMON             0          0                                 1040400300011 
DATA                 2         66                                 1040400300012 
EN         DATA                                                   1040400300013 
EV         B                                                      1040400300014 
  0.51101    16.40                                                1040400300015 
  0.52757    16.93                                                1040400300016 
  0.55396    16.90                                                1040400300017 
  0.58177    15.79                                                1040400300018 
  0.61107    17.13                                                1040400300019 
  0.64192    16.99                                                1040400300020 
  0.67364    17.20                                                1040400300021 
  0.70695    16.80                                                1040400300022 
  0.74279    16.18                                                1040400300023 
  0.78047    15.75                                                1040400300024 
  0.81903    15.75                                                1040400300025 
  0.85943    16.60                                                1040400300026 
  0.90289    15.95                                                1040400300027 
  0.94845    16.14                                                1040400300028 
  0.99617    14.84                                                1040400300029 
  1.04611    14.03                                                1040400300030 
  1.09830    14.85                                                1040400300031 
  1.15279    14.69                                                1040400300032 
  1.20959    15.12                                                1040400300033 
  1.27070    15.69                                                1040400300034 
  1.33442    15.21                                                1040400300035 
  1.40076    15.44                                                1040400300036 
  1.46970    15.29                                                1040400300037 
  1.54387    13.82                                                1040400300038 
  1.62093    15.36                                                1040400300039 
  1.70084    13.31                                                1040400300040 
  1.78681    14.20                                                1040400300041 
  1.87591    14.07                                                1040400300042 
  1.97184    14.37                                                1040400300043 
  2.07119    14.48                                                1040400300044 
  2.17380    14.88                                                1040400300045 
  2.28424    14.58                                                1040400300046 
  2.39816    15.36                                                1040400300047 
  2.51529    14.36                                                1040400300048 
  2.64122    13.25                                                1040400300049 
  2.77046    14.95                                                1040400300050 
  2.90943    13.05                                                1040400300051 
  3.05912    14.80                                                1040400300052 
  3.21268    12.76                                                1040400300053 
  3.36954    14.62                                                1040400300054 
  3.53817    14.74                                                1040400300055 
  3.71978    15.05                                                1040400300056 
  3.90505    15.43                                                1040400300057 
  4.10451    14.35                                                1040400300058 
  4.30725    14.80                                                1040400300059 
  4.51212    15.55                                                1040400300060 
  4.73196    12.91                                                1040400300061 
  4.96826    14.51                                                1040400300062 
  5.22272    14.05                                                1040400300063 
  5.49724    13.96                                                1040400300064 
  5.77474    12.97                                                1040400300065 
  6.05314    13.85                                                1040400300066 
  6.35217    14.22                                                1040400300067 
  6.67392    15.08                                                1040400300068 
  7.02076    13.63                                                1040400300069 
  7.36761    14.19                                                1040400300070 
  7.71111    17.51                                                1040400300071 
  8.11106    15.24                                                1040400300072 
  8.54295    16.99                                                1040400300073 
  8.97299    16.03                                                1040400300074 
  9.39637    17.68                                                1040400300075 
  9.85043    21.31                                                1040400300076 
 10.33823    22.91                                                1040400300077 
 10.86317    66.71                                                1040400300078 
 11.42914   316.16                                                1040400300079 
 11.98293   311.36                                                1040400300080 
ENDDATA             68          0                                 1040400300081 
ENDSUBENT           80          0                                 1040400399999 
SUBENT        10404004   20030207                             00001040400400001 
BIB                  4          6                                 1040400400002 
REACTION   (41-NB-94(N,TOT),,SIG)                                 1040400400003 
SAMPLE     Isotopic composition of sample: 93Nb (90.8%),          1040400400004 
             94Nb (4.23%), 95Nb (0.11%), 95Mo (4.0%), 96Mo (1.0%).1040400400005 
           Sample thickness 7.60 b/atom.                          1040400400006 
ERR-ANALYS No information on uncertainties.                       1040400400007 
STATUS     Data received on magnetic tape.                        1040400400008 
ENDBIB               6          0                                 1040400400009 
NOCOMMON             0          0                                 1040400400010 
DATA                 2         50                                 1040400400011 
EN         DATA                                                   1040400400012 
EV         B                                                      1040400400013 
 0.00119    10.59                                                 1040400400014 
 0.00125    10.25                                                 1040400400015 
 0.00132     9.87                                                 1040400400016 
 0.00138     9.91                                                 1040400400017 
 0.00145     9.65                                                 1040400400018 
 0.00152     9.56                                                 1040400400019 
 0.00160     9.41                                                 1040400400020 
 0.00168     9.20                                                 1040400400021 
 0.00176     9.08                                                 1040400400022 
 0.00185     8.73                                                 1040400400023 
 0.00194     8.63                                                 1040400400024 
 0.00204     8.45                                                 1040400400025 
 0.00214     8.28                                                 1040400400026 
 0.00225     8.04                                                 1040400400027 
 0.00236     7.94                                                 1040400400028 
 0.00248     7.73                                                 1040400400029 
 0.00260     7.56                                                 1040400400030 
 0.00273     7.47                                                 1040400400031 
 0.00287     7.28                                                 1040400400032 
 0.00301     7.26                                                 1040400400033 
 0.00317     7.12                                                 1040400400034 
 0.00332     7.00                                                 1040400400035 
 0.00348     6.98                                                 1040400400036 
 0.00365     7.46                                                 1040400400037 
 0.00384    14.94                                                 1040400400038 
 0.00404    14.33                                                 1040400400039 
 0.00424    12.66                                                 1040400400040 
 0.00444    11.74                                                 1040400400041 
 0.00466    11.13                                                 1040400400042 
 0.00490    10.26                                                 1040400400043 
 0.00515    10.17                                                 1040400400044 
 0.00541    10.22                                                 1040400400045 
 0.00569     9.96                                                 1040400400046 
 0.00598     9.62                                                 1040400400047 
 0.00626     9.37                                                 1040400400048 
 0.00656     9.19                                                 1040400400049 
 0.00691     8.98                                                 1040400400050 
 0.00725     8.89                                                 1040400400051 
 0.00759     9.15                                                 1040400400052 
 0.00799     9.11                                                 1040400400053 
 0.00842     8.97                                                 1040400400054 
 0.00882     8.92                                                 1040400400055 
 0.00924     8.83                                                 1040400400056 
 0.00973     8.74                                                 1040400400057 
 0.01022     8.75                                                 1040400400058 
 0.01070     8.73                                                 1040400400059 
 0.01121     9.62                                                 1040400400060 
 0.01176    10.87                                                 1040400400061 
 0.01235    10.72                                                 1040400400062 
 0.01299    10.58                                                 1040400400063 
ENDDATA             52          0                                 1040400400064 
ENDSUBENT           63          0                                 1040400499999 
SUBENT        10404005   20030207                             00001040400500001 
BIB                  4          6                                 1040400500002 
REACTION   (41-NB-94(N,TOT),,SIG)                                 1040400500003 
SAMPLE     Isotopic composition of sample: 93Nb (90.8%),          1040400500004 
             94Nb (4.23%), 95Nb (0.11%), 95Mo (4.0%), 96Mo (1.0%).1040400500005 
           Sample thickness 7.60 b/atom.                          1040400500006 
ERR-ANALYS No information on uncertainties.                       1040400500007 
STATUS     Data received on magnetic tape.                        1040400500008 
ENDBIB               6          0                                 1040400500009 
NOCOMMON             0          0                                 1040400500010 
DATA                 2        130                                 1040400500011 
EN         DATA                                                   1040400500012 
EV         B                                                      1040400500013 
 0.00607     9.94                                                 1040400500014 
 0.00637     9.72                                                 1040400500015 
 0.00669     9.18                                                 1040400500016 
 0.00701     9.18                                                 1040400500017 
 0.00736     8.96                                                 1040400500018 
 0.00774     9.13                                                 1040400500019 
 0.00813     9.10                                                 1040400500020 
 0.00854     8.96                                                 1040400500021 
 0.00897     8.80                                                 1040400500022 
 0.00942     8.65                                                 1040400500023 
 0.00988     8.65                                                 1040400500024 
 0.01038     8.61                                                 1040400500025 
 0.01089     8.49                                                 1040400500026 
 0.01144     9.73                                                 1040400500027 
 0.01203    10.46                                                 1040400500028 
 0.01263    10.38                                                 1040400500029 
 0.01325    10.22                                                 1040400500030 
 0.01392    10.23                                                 1040400500031 
 0.01463    10.01                                                 1040400500032 
 0.01537    10.78                                                 1040400500033 
 0.01611    10.33                                                 1040400500034 
 0.01691     9.67                                                 1040400500035 
 0.01776     9.19                                                 1040400500036 
 0.01863     8.83                                                 1040400500037 
 0.01957     9.15                                                 1040400500038 
 0.02057     8.84                                                 1040400500039 
 0.02159     8.76                                                 1040400500040 
 0.02261     8.57                                                 1040400500041 
 0.02378     8.46                                                 1040400500042 
 0.02504     8.23                                                 1040400500043 
 0.02623     8.24                                                 1040400500044 
 0.02749     9.11                                                 1040400500045 
 0.02896     8.84                                                 1040400500046 
 0.03043     8.51                                                 1040400500047 
 0.03189     8.32                                                 1040400500048 
 0.03346     8.15                                                 1040400500049 
 0.03515     8.43                                                 1040400500050 
 0.03696     8.15                                                 1040400500051 
 0.03876     8.18                                                 1040400500052 
 0.04068     8.15                                                 1040400500053 
 0.04276     8.08                                                 1040400500054 
 0.04478     7.99                                                 1040400500055 
 0.04696     8.02                                                 1040400500056 
 0.04929     8.06                                                 1040400500057 
 0.05181     8.27                                                 1040400500058 
 0.05452     8.01                                                 1040400500059 
 0.05714     7.88                                                 1040400500060 
 0.05996     7.83                                                 1040400500061 
 0.06300     7.76                                                 1040400500062 
 0.06627     7.71                                                 1040400500063 
 0.06981     7.71                                                 1040400500064 
 0.07319     7.72                                                 1040400500065 
 0.07682     7.71                                                 1040400500066 
 0.08074     7.68                                                 1040400500067 
 0.08496     7.63                                                 1040400500068 
 0.08893     7.58                                                 1040400500069 
 0.09318     7.46                                                 1040400500070 
 0.09775     7.47                                                 1040400500071 
 0.10266     7.48                                                 1040400500072 
 0.10796     7.48                                                 1040400500073 
 0.11283     7.44                                                 1040400500074 
 0.11893     7.38                                                 1040400500075 
 0.12555     7.37                                                 1040400500076 
 0.13167     7.33                                                 1040400500077 
 0.13826     7.34                                                 1040400500078 
 0.14534     7.35                                                 1040400500079 
 0.15167     7.31                                                 1040400500080 
 0.15843     7.30                                                 1040400500081 
 0.16715     7.27                                                 1040400500082 
 0.17660     7.28                                                 1040400500083 
 0.18511     7.30                                                 1040400500084 
 0.19425     7.20                                                 1040400500085 
 0.20408     7.20                                                 1040400500086 
 0.21249     7.17                                                 1040400500087 
 0.22376     7.30                                                 1040400500088 
 0.23595     7.30                                                 1040400500089 
 0.24643     7.23                                                 1040400500090 
 0.25763     7.12                                                 1040400500091 
 0.27273     7.15                                                 1040400500092 
 0.28921     7.16                                                 1040400500093 
 0.30348     7.04                                                 1040400500094 
 0.31884     7.12                                                 1040400500095 
 0.33540     7.08                                                 1040400500096 
 0.34867     7.18                                                 1040400500097 
 0.36276     7.03                                                 1040400500098 
 0.38290     7.08                                                 1040400500099 
 0.40477     7.03                                                 1040400500100 
 0.42242     7.06                                                 1040400500101 
 0.44126     6.92                                                 1040400500102 
 0.46840     7.03                                                 1040400500103 
 0.49043     7.11                                                 1040400500104 
 0.51405     7.01                                                 1040400500105 
 0.53943     6.85                                                 1040400500106 
 0.56673     6.97                                                 1040400500107 
 0.59615     6.89                                                 1040400500108 
 0.62793     6.98                                                 1040400500109 
 0.66231     6.90                                                 1040400500110 
 0.68683     6.93                                                 1040400500111 
 0.72624     6.83                                                 1040400500112 
 0.76915     7.13                                                 1040400500113 
 0.79990     6.92                                                 1040400500114 
 0.83253     6.87                                                 1040400500115 
 0.86720     6.84                                                 1040400500116 
 0.92340     6.94                                                 1040400500117 
 0.98526     6.88                                                 1040400500118 
 1.03002     6.87                                                 1040400500119 
 1.07790     6.89                                                 1040400500120 
 1.12919     6.88                                                 1040400500121 
 1.18423     6.94                                                 1040400500122 
 1.24340     6.83                                                 1040400500123 
 1.30712     6.88                                                 1040400500124 
 1.37587     6.81                                                 1040400500125 
 1.45018     6.75                                                 1040400500126 
 1.53068     6.81                                                 1040400500127 
 1.61808     6.76                                                 1040400500128 
 1.71318     6.88                                                 1040400500129 
 1.81692     6.92                                                 1040400500130 
 1.93037     6.86                                                 1040400500131 
 2.05479     6.83                                                 1040400500132 
 2.19164     6.76                                                 1040400500133 
 2.34263     6.79                                                 1040400500134 
 2.50978     6.72                                                 1040400500135 
 2.69548     6.81                                                 1040400500136 
 2.90257     6.76                                                 1040400500137 
 3.13449     6.76                                                 1040400500138 
 3.39535     6.74                                                 1040400500139 
 3.69018     6.77                                                 1040400500140 
 4.02516     6.66                                                 1040400500141 
 4.40790     6.68                                                 1040400500142 
 4.84795     6.87                                                 1040400500143 
ENDDATA            132          0                                 1040400500144 
ENDSUBENT          143          0                                 1040400599999 
SUBENT        10404006   20030207                             00001040400600001 
BIB                  4          4                                 1040400600002 
REACTION   (41-NB-93(N,TOT),,SIG)                                 1040400600003 
SAMPLE     Natural Nb metal, sample thickness 8.29 b/atom.        1040400600004 
ERR-ANALYS No information on uncertainties.                       1040400600005 
STATUS     Data received on magnetic tape.                        1040400600006 
ENDBIB               4          0                                 1040400600007 
NOCOMMON             0          0                                 1040400600008 
DATA                 2        220                                 1040400600009 
EN         DATA                                                   1040400600010 
EV         B                                                      1040400600011 
 0.00119    5.78                                                  1040400600012 
 0.00125    5.72                                                  1040400600013 
 0.00132    5.45                                                  1040400600014 
 0.00138    5.28                                                  1040400600015 
 0.00145    5.17                                                  1040400600016 
 0.00152    5.06                                                  1040400600017 
 0.00160    4.91                                                  1040400600018 
 0.00168    4.92                                                  1040400600019 
 0.00176    4.79                                                  1040400600020 
 0.00185    4.59                                                  1040400600021 
 0.00194    4.48                                                  1040400600022 
 0.00204    4.31                                                  1040400600023 
 0.00214    4.25                                                  1040400600024 
 0.00225    4.16                                                  1040400600025 
 0.00236    4.04                                                  1040400600026 
 0.00248    3.97                                                  1040400600027 
 0.00260    3.86                                                  1040400600028 
 0.00273    3.75                                                  1040400600029 
 0.00287    3.68                                                  1040400600030 
 0.00301    3.61                                                  1040400600031 
 0.00317    3.53                                                  1040400600032 
 0.00332    3.43                                                  1040400600033 
 0.00348    3.34                                                  1040400600034 
 0.00365    3.60                                                  1040400600035 
 0.00384    6.17                                                  1040400600036 
 0.00404    5.31                                                  1040400600037 
 0.00424    5.05                                                  1040400600038 
 0.00444    4.82                                                  1040400600039 
 0.00466    4.60                                                  1040400600040 
 0.00490    4.03                                                  1040400600041 
 0.00515    4.34                                                  1040400600042 
 0.00541    4.63                                                  1040400600043 
 0.00569    4.58                                                  1040400600044 
 0.00598    4.44                                                  1040400600045 
 0.00607    5.04                                                  1040400600046 
 0.00626    4.24                                                  1040400600047 
 0.00637    4.68                                                  1040400600048 
 0.00656    4.16                                                  1040400600049 
 0.00669    4.40                                                  1040400600050 
 0.00691    4.05                                                  1040400600051 
 0.00701    4.38                                                  1040400600052 
 0.00725    4.00                                                  1040400600053 
 0.00736    4.38                                                  1040400600054 
 0.00759    4.20                                                  1040400600055 
 0.00774    4.31                                                  1040400600056 
 0.00799    4.05                                                  1040400600057 
 0.00813    4.19                                                  1040400600058 
 0.00842    4.00                                                  1040400600059 
 0.00854    4.15                                                  1040400600060 
 0.00882    3.94                                                  1040400600061 
 0.00897    4.00                                                  1040400600062 
 0.00924    3.87                                                  1040400600063 
 0.00942    3.95                                                  1040400600064 
 0.00973    3.91                                                  1040400600065 
 0.00988    4.01                                                  1040400600066 
 0.01022    4.02                                                  1040400600067 
 0.01038    4.02                                                  1040400600068 
 0.01070    3.98                                                  1040400600069 
 0.01089    3.94                                                  1040400600070 
 0.01121    4.69                                                  1040400600071 
 0.01144    4.85                                                  1040400600072 
 0.01176    5.29                                                  1040400600073 
 0.01203    5.15                                                  1040400600074 
 0.01235    5.20                                                  1040400600075 
 0.01263    5.09                                                  1040400600076 
 0.01299    5.19                                                  1040400600077 
 0.01325    5.02                                                  1040400600078 
 0.01368    5.33                                                  1040400600079 
 0.01392    5.16                                                  1040400600080 
 0.01434    5.56                                                  1040400600081 
 0.01463    5.29                                                  1040400600082 
 0.01506    6.07                                                  1040400600083 
 0.01537    5.97                                                  1040400600084 
 0.01583    5.98                                                  1040400600085 
 0.01611    5.75                                                  1040400600086 
 0.01656    5.62                                                  1040400600087 
 0.01691    5.30                                                  1040400600088 
 0.01746    5.38                                                  1040400600089 
 0.01776    5.07                                                  1040400600090 
 0.01842    5.32                                                  1040400600091 
 0.01863    5.02                                                  1040400600092 
 0.01935    5.55                                                  1040400600093 
 0.01957    5.35                                                  1040400600094 
 0.02022    5.57                                                  1040400600095 
 0.02057    5.27                                                  1040400600096 
 0.02115    5.56                                                  1040400600097 
 0.02159    5.31                                                  1040400600098 
 0.02229    5.41                                                  1040400600099 
 0.02261    5.23                                                  1040400600100 
 0.02337    5.32                                                  1040400600101 
 0.02378    5.16                                                  1040400600102 
 0.02452    5.24                                                  1040400600103 
 0.02504    5.11                                                  1040400600104 
 0.02577    5.48                                                  1040400600105 
 0.02623    5.23                                                  1040400600106 
 0.02711    6.00                                                  1040400600107 
 0.02749    6.02                                                  1040400600108 
 0.02857    5.82                                                  1040400600109 
 0.02896    5.83                                                  1040400600110 
 0.02990    5.64                                                  1040400600111 
 0.03043    5.68                                                  1040400600112 
 0.03134    5.46                                                  1040400600113 
 0.03189    5.62                                                  1040400600114 
 0.03288    5.39                                                  1040400600115 
 0.03346    5.56                                                  1040400600116 
 0.03454    5.59                                                  1040400600117 
 0.03515    5.94                                                  1040400600118 
 0.03632    5.51                                                  1040400600119 
 0.03696    5.79                                                  1040400600120 
 0.03825    5.47                                                  1040400600121 
 0.03876    5.93                                                  1040400600122 
 0.03998    5.43                                                  1040400600123 
 0.04068    5.98                                                  1040400600124 
 0.04182    5.36                                                  1040400600125 
 0.04276    5.97                                                  1040400600126 
 0.04421    5.28                                                  1040400600127 
 0.04478    5.93                                                  1040400600128 
 0.04637    5.33                                                  1040400600129 
 0.04696    6.06                                                  1040400600130 
 0.04868    5.38                                                  1040400600131 
 0.04929    6.18                                                  1040400600132 
 0.05117    5.43                                                  1040400600133 
 0.05181    6.44                                                  1040400600134 
 0.05330    5.29                                                  1040400600135 
 0.05452    6.24                                                  1040400600136 
 0.05616    5.21                                                  1040400600137 
 0.05714    6.25                                                  1040400600138 
 0.05925    5.18                                                  1040400600139 
 0.05996    6.29                                                  1040400600140 
 0.06191    5.13                                                  1040400600141 
 0.06300    6.24                                                  1040400600142 
 0.06476    5.09                                                  1040400600143 
 0.06627    6.27                                                  1040400600144 
 0.06780    5.15                                                  1040400600145 
 0.06981    6.26                                                  1040400600146 
 0.07107    5.21                                                  1040400600147 
 0.07319    6.36                                                  1040400600148 
 0.07458    5.33                                                  1040400600149 
 0.07682    6.42                                                  1040400600150 
 0.07836    5.42                                                  1040400600151 
 0.08074    6.45                                                  1040400600152 
 0.08242    5.47                                                  1040400600153 
 0.08496    6.47                                                  1040400600154 
 0.08682    5.52                                                  1040400600155 
 0.08893    6.44                                                  1040400600156 
 0.09158    5.62                                                  1040400600157 
 0.09318    6.37                                                  1040400600158 
 0.09673    5.72                                                  1040400600159 
 0.09775    6.40                                                  1040400600160 
 0.10089    5.82                                                  1040400600161 
 0.10266    6.40                                                  1040400600162 
 0.10533    5.99                                                  1040400600163 
 0.10796    6.51                                                  1040400600164 
 0.11171    6.17                                                  1040400600165 
 0.11283    6.49                                                  1040400600166 
 0.11688    6.23                                                  1040400600167 
 0.11893    6.44                                                  1040400600168 
 0.12243    6.33                                                  1040400600169 
 0.12555    6.46                                                  1040400600170 
 0.12837    6.41                                                  1040400600171 
 0.13167    6.43                                                  1040400600172 
 0.13476    6.52                                                  1040400600173 
 0.13826    6.47                                                  1040400600174 
 0.14164    6.69                                                  1040400600175 
 0.14534    6.51                                                  1040400600176 
 0.14906    6.69                                                  1040400600177 
 0.15167    6.48                                                  1040400600178 
 0.15843    6.48                                                  1040400600179 
 0.16715    6.45                                                  1040400600180 
 0.17660    6.40                                                  1040400600181 
 0.18511    6.49                                                  1040400600182 
 0.19425    6.49                                                  1040400600183 
 0.20408    6.51                                                  1040400600184 
 0.21249    6.47                                                  1040400600185 
 0.22376    6.55                                                  1040400600186 
 0.23595    6.50                                                  1040400600187 
 0.24643    6.55                                                  1040400600188 
 0.25763    6.53                                                  1040400600189 
 0.27273    6.53                                                  1040400600190 
 0.28921    6.50                                                  1040400600191 
 0.30348    6.49                                                  1040400600192 
 0.31884    6.44                                                  1040400600193 
 0.33540    6.50                                                  1040400600194 
 0.34867    6.63                                                  1040400600195 
 0.36276    6.44                                                  1040400600196 
 0.38290    6.53                                                  1040400600197 
 0.40477    6.57                                                  1040400600198 
 0.42242    6.56                                                  1040400600199 
 0.44126    6.48                                                  1040400600200 
 0.46840    6.49                                                  1040400600201 
 0.49043    6.46                                                  1040400600202 
 0.51405    6.55                                                  1040400600203 
 0.53943    6.40                                                  1040400600204 
 0.56673    6.51                                                  1040400600205 
 0.59615    6.38                                                  1040400600206 
 0.62793    6.53                                                  1040400600207 
 0.66231    6.54                                                  1040400600208 
 0.68683    6.42                                                  1040400600209 
 0.72624    6.35                                                  1040400600210 
 0.76915    6.44                                                  1040400600211 
 0.79990    6.48                                                  1040400600212 
 0.83253    6.66                                                  1040400600213 
 0.86720    6.35                                                  1040400600214 
 0.92340    6.51                                                  1040400600215 
 0.98526    6.57                                                  1040400600216 
 1.03002    6.57                                                  1040400600217 
 1.07790    6.42                                                  1040400600218 
 1.12919    6.53                                                  1040400600219 
 1.18423    6.47                                                  1040400600220 
 1.24340    6.61                                                  1040400600221 
 1.30712    6.54                                                  1040400600222 
 1.37587    6.41                                                  1040400600223 
 1.45018    6.38                                                  1040400600224 
 1.53068    6.39                                                  1040400600225 
 1.61808    6.42                                                  1040400600226 
 1.71318    6.56                                                  1040400600227 
 1.81692    6.53                                                  1040400600228 
 1.93037    6.38                                                  1040400600229 
 2.05479    6.68                                                  1040400600230 
 2.19164    6.41                                                  1040400600231 
ENDDATA            222          0                                 1040400600232 
ENDSUBENT          231          0                                 1040400699999 
SUBENT        10404007   20030207                             00001040400700001 
BIB                  3          3                                 1040400700002 
REACTION   (41-NB-93(N,TOT),,SIG)                                 1040400700003 
ERR-ANALYS (DATA-ERR) No information on source of uncertainties.  1040400700004 
STATUS     Data Taken from IN-1407.                               1040400700005 
ENDBIB               3          0                                 1040400700006 
NOCOMMON             0          0                                 1040400700007 
DATA                 3          1                                 1040400700008 
EN         DATA       DATA-ERR                                    1040400700009 
EV         B          B                                           1040400700010 
 0.0253     1.2        0.2                                        1040400700011 
ENDDATA              3          0                                 1040400700012 
ENDSUBENT           11          0                                 1040400799999 
SUBENT        10404008   20030207                             00001040400800001 
BIB                  4          4                                 1040400800002 
REACTION   (41-NB-94(N,TOT),,SIG)                                 1040400800003 
ERR-ANALYS (DATA-ERR) No information on source of uncertainties.  1040400800004 
STATUS     Data Taken from IN-1407.                               1040400800005 
HISTORY    (20030207A) Data from thesis replaced.                 1040400800006 
ENDBIB               4          0                                 1040400800007 
NOCOMMON             0          0                                 1040400800008 
DATA                 3          1                                 1040400800009 
EN         DATA       DATA-ERR                                    1040400800010 
EV         B          B                                           1040400800011 
 0.0253     15.        7.                                         1040400800012 
ENDDATA              3          0                                 1040400800013 
ENDSUBENT           12          0                                 1040400899999 
SUBENT        10404009   20030207                             00001040400900001 
BIB                  6          9                                 1040400900002 
REACTION  1(41-NB-94(N,EL),,WID/RED)                              1040400900003 
          2(41-NB-94(N,G),,WID)                                   1040400900004 
ANALYSIS   (SLA) Single-level Breit-Wigner analysis using ACSAP   1040400900005 
            program.                                              1040400900006 
ASSUMED    (ASSUM,41-NB-94(N,G),,WID)                             1040400900007 
ERR-ANALYS (DATA-ERR) No information on source of uncertainties.  1040400900008 
STATUS     Data Taken from IN-1407.                               1040400900009 
HISTORY    (20030207A) Data for subentries 9-11 from thesis       1040400900010 
                       replaced.                                  1040400900011 
ENDBIB               9          0                                 1040400900012 
COMMON               1          3                                 1040400900013 
MOMENTUM L                                                        1040400900014 
NO-DIM                                                            1040400900015 
 0.                                                               1040400900016 
ENDCOMMON            3          0                                 1040400900017 
DATA                 6          2                                 1040400900018 
EN-RES     DATA      1DATA-ERR  1DATA      2DATA-ERR  2ASSUM      1040400900019 
EV         MILLI-EV   MILLI-EV   MILLI-EV   MILLI-EV   MILLI-EV   1040400900020 
 11.58       1.8        0.1       165.        20.                 1040400900021 
 22.78       0.19       0.02                            165.      1040400900022 
ENDDATA              4          0                                 1040400900023 
ENDSUBENT           22          0                                 1040400999999 
NOSUBENT      10404010   20030207                             00001040401000001 
NOSUBENT      10404011   20030207                             00001040401100001 
SUBENT        10404012   20030207                             00001040401200001 
BIB                  3          8                                 1040401200002 
REACTION  1(42-MO-95(N,TOT),,WID)                                 1040401200003 
          2(42-MO-95(N,EL),,WID)                                  1040401200004 
          3(42-MO-95(N,EL),,WID/RED)                              1040401200005 
          4(42-MO-95(N,G),,WID)                                   1040401200006 
ANALYSIS   (AREA) Area analysis. Since the amount of 95Mo in      1040401200007 
            the thick and thin samples is not well known, the     1040401200008 
            accuracy of these parameters is limited.              1040401200009 
ERR-ANALYS No information on uncertainties.                       1040401200010 
ENDBIB               8          0                                 1040401200011 
COMMON               1          3                                 1040401200012 
MOMENTUM L                                                        1040401200013 
NO-DIM                                                            1040401200014 
 0.                                                               1040401200015 
ENDCOMMON            3          0                                 1040401200016 
DATA                 5          1                                 1040401200017 
EN-RES     DATA      1DATA      2DATA      3DATA      4           1040401200018 
EV         MILLI-EV   MILLI-EV   MILLI-EV   MILLI-EV              1040401200019 
 44.62      417.       181.0       27.1      236.                 1040401200020 
ENDDATA              3          0                                 1040401200021 
ENDSUBENT           20          0                                 1040401299999 
ENDENTRY            12          0                                 1040499999999 
