ENTRY            10589   20040723                             00001058900000001 
SUBENT        10589001   20040723                             00001058900100001 
BIB                 10         17                                 1058900100002 
INSTITUTE  (1USARPI)                                              1058900100003 
REFERENCE  (P,USNDC-9,170,197312)                                 1058900100004 
           (T,NADOLNY,1973) B.S.thesis of K.A.Nadolny             1058900100005 
AUTHOR     (K.A.Nadolny,F.L.Green,P.Stoler)                       1058900100006 
TITLE      Total neutron cross section of 239Pu                   1058900100007 
FACILITY   (LINAC,1USARPI)                                        1058900100008 
METHOD     (TOF) Time of flight. 250-meter flight path.           1058900100009 
DETECTOR   (SCIN) Proton-recoil liquid scintillator               1058900100010 
ERR-ANALYS (DATA-ERR) No information on source of uncertainty.    1058900100011 
           Systematic errors estimated to be 1% above 1 MeV to    1058900100012 
            about 15 MeV, and may become slightly worse at higher 1058900100013 
            energies.                                             1058900100014 
STATUS     No reply to author proof.                              1058900100015 
           Data taken from private comm., Stoler, 1976/3/17.      1058900100016 
HISTORY    (19760317C)                                            1058900100017 
           (19830914A) Converted to REACTION formalism            1058900100018 
           (20040723A) Converted to new data formts, lower case.  1058900100019 
ENDBIB              17          0                                 1058900100020 
NOCOMMON             0          0                                 1058900100021 
ENDSUBENT           20          0                                 1058900199999 
SUBENT        10589002   20040723                             00001058900200001 
BIB                  1          1                                 1058900200002 
REACTION   (94-PU-239(N,TOT),,SIG)                                1058900200003 
ENDBIB               1          0                                 1058900200004 
NOCOMMON             0          0                                 1058900200005 
DATA                 3        719                                 1058900200006 
EN         DATA       DATA-ERR                                    1058900200007 
MEV        B          MB                                          1058900200008 
  0.5000    8.385      144.                                       1058900200009 
  0.5012    8.173      144.                                       1058900200010 
  0.5024    8.114      142.                                       1058900200011 
  0.5037    8.399      139.                                       1058900200012 
  0.5049    8.376      135.                                       1058900200013 
  0.5061    8.251      133.                                       1058900200014 
  0.5074    8.383      131.                                       1058900200015 
  0.5086    8.243      132.                                       1058900200016 
  0.5098    7.992      132.                                       1058900200017 
  0.5111    8.205      133.                                       1058900200018 
  0.5124    8.118      127.                                       1058900200019 
  0.5136    8.223      127.                                       1058900200020 
  0.5149    8.304      125.                                       1058900200021 
  0.5161    8.408      125.                                       1058900200022 
  0.5174    8.041      126.                                       1058900200023 
  0.5187    8.474      130.                                       1058900200024 
  0.5200    8.236      129.                                       1058900200025 
  0.5213    8.497      135.                                       1058900200026 
  0.5226    8.239      137.                                       1058900200027 
  0.5239    8.166      139.                                       1058900200028 
  0.5252    8.348      154.                                       1058900200029 
  0.5265    8.231      158.                                       1058900200030 
  0.5278    8.021      154.                                       1058900200031 
  0.5291    8.303      144.                                       1058900200032 
  0.5304    8.132      134.                                       1058900200033 
  0.5318    8.136      130.                                       1058900200034 
  0.5331    8.036      126.                                       1058900200035 
  0.5344    8.445      123.                                       1058900200036 
  0.5358    7.984      119.                                       1058900200037 
  0.5371    8.346      122.                                       1058900200038 
  0.5385    8.107      119.                                       1058900200039 
  0.5398    8.103      115.                                       1058900200040 
  0.5412    8.014      114.                                       1058900200041 
  0.5426    8.006      115.                                       1058900200042 
  0.5439    7.955      115.                                       1058900200043 
  0.5453    7.992      115.                                       1058900200044 
  0.5467    8.126      110.                                       1058900200045 
  0.5481    8.041      109.                                       1058900200046 
  0.5495    8.141      109.                                       1058900200047 
  0.5509    7.925      108.                                       1058900200048 
  0.5523    8.254      107.                                       1058900200049 
  0.5537    8.160      105.                                       1058900200050 
  0.5551    8.273      106.                                       1058900200051 
  0.5565    7.947      105.                                       1058900200052 
  0.5580    8.146      109.                                       1058900200053 
  0.5594    8.098      108.                                       1058900200054 
  0.5608    7.976      109.                                       1058900200055 
  0.5623    8.063      110.                                       1058900200056 
  0.5637    7.834      108.                                       1058900200057 
  0.5652    7.974      109.                                       1058900200058 
  0.5666    8.055      111.                                       1058900200059 
  0.5681    8.046      109.                                       1058900200060 
  0.5696    7.907      111.                                       1058900200061 
  0.5710    8.107      109.                                       1058900200062 
  0.5725    7.910      107.                                       1058900200063 
  0.5740    7.898      105.                                       1058900200064 
  0.5755    7.954      105.                                       1058900200065 
  0.5770    8.020      102.                                       1058900200066 
  0.5785    7.882       98.                                       1058900200067 
  0.5800    8.033       97.                                       1058900200068 
  0.5815    8.023       94.                                       1058900200069 
  0.5831    8.014       92.                                       1058900200070 
  0.5846    8.120       95.                                       1058900200071 
  0.5861    8.009       98.                                       1058900200072 
  0.5877    7.874       99.                                       1058900200073 
  0.5892    8.008       97.                                       1058900200074 
  0.5908    7.977       93.                                       1058900200075 
  0.5923    7.966       90.                                       1058900200076 
  0.5939    7.978       89.                                       1058900200077 
  0.5955    7.969       88.                                       1058900200078 
  0.5971    7.961       92.                                       1058900200079 
  0.5986    8.027       92.                                       1058900200080 
  0.6002    8.028       86.                                       1058900200081 
  0.6018    7.791       82.                                       1058900200082 
  0.6034    7.897       82.                                       1058900200083 
  0.6051    7.747       80.                                       1058900200084 
  0.6067    7.887       80.                                       1058900200085 
  0.6083    7.892       80.                                       1058900200086 
  0.6099    7.772       80.                                       1058900200087 
  0.6116    7.964       84.                                       1058900200088 
  0.6132    7.973       87.                                       1058900200089 
  0.6149    7.790       86.                                       1058900200090 
  0.6165    7.917       85.                                       1058900200091 
  0.6182    8.012       85.                                       1058900200092 
  0.6198    7.972       85.                                       1058900200093 
  0.6215    7.885       86.                                       1058900200094 
  0.6232    8.019       84.                                       1058900200095 
  0.6249    7.841       82.                                       1058900200096 
  0.6266    7.886       83.                                       1058900200097 
  0.6283    7.684       83.                                       1058900200098 
  0.6300    7.845       84.                                       1058900200099 
  0.6317    7.726       84.                                       1058900200100 
  0.6335    7.742       85.                                       1058900200101 
  0.6352    7.809       87.                                       1058900200102 
  0.6369    7.658       82.                                       1058900200103 
  0.6387    7.754       82.                                       1058900200104 
  0.6404    7.754       84.                                       1058900200105 
  0.6422    7.731       83.                                       1058900200106 
  0.6440    7.858       86.                                       1058900200107 
  0.6457    7.738       90.                                       1058900200108 
  0.6475    7.632       88.                                       1058900200109 
  0.6493    7.661       83.                                       1058900200110 
  0.6511    7.646       83.                                       1058900200111 
  0.6529    7.717       87.                                       1058900200112 
  0.6547    7.886       86.                                       1058900200113 
  0.6565    7.882       83.                                       1058900200114 
  0.6584    7.718       79.                                       1058900200115 
  0.6602    7.648       77.                                       1058900200116 
  0.6621    7.637       76.                                       1058900200117 
  0.6639    7.766       75.                                       1058900200118 
  0.6658    7.794       76.                                       1058900200119 
  0.6676    7.641       76.                                       1058900200120 
  0.6695    7.768       76.                                       1058900200121 
  0.6714    7.777       74.                                       1058900200122 
  0.6733    7.705       74.                                       1058900200123 
  0.6752    7.749       73.                                       1058900200124 
  0.6771    7.782       74.                                       1058900200125 
  0.6790    7.809       72.                                       1058900200126 
  0.6809    7.557       71.                                       1058900200127 
  0.6829    7.667       71.                                       1058900200128 
  0.6848    7.571       71.                                       1058900200129 
  0.6867    7.661       70.                                       1058900200130 
  0.6887    7.699       69.                                       1058900200131 
  0.6907    7.534       68.                                       1058900200132 
  0.6926    7.558       70.                                       1058900200133 
  0.6946    7.670       70.                                       1058900200134 
  0.6966    7.624       68.                                       1058900200135 
  0.6986    7.676       68.                                       1058900200136 
  0.7006    7.529       68.                                       1058900200137 
  0.7026    7.610       68.                                       1058900200138 
  0.7047    7.695       70.                                       1058900200139 
  0.7067    7.506       70.                                       1058900200140 
  0.7087    7.590       66.                                       1058900200141 
  0.7108    7.606       66.                                       1058900200142 
  0.7128    7.499       64.                                       1058900200143 
  0.7149    7.576       68.                                       1058900200144 
  0.7170    7.594       68.                                       1058900200145 
  0.7191    7.485       70.                                       1058900200146 
  0.7212    7.470       70.                                       1058900200147 
  0.7233    7.565       67.                                       1058900200148 
  0.7254    7.471       67.                                       1058900200149 
  0.7275    7.465       65.                                       1058900200150 
  0.7297    7.539       65.                                       1058900200151 
  0.7318    7.505       63.                                       1058900200152 
  0.7339    7.534       62.                                       1058900200153 
  0.7361    7.575       63.                                       1058900200154 
  0.7383    7.533       62.                                       1058900200155 
  0.7405    7.375       61.                                       1058900200156 
  0.7426    7.336       61.                                       1058900200157 
  0.7448    7.540       62.                                       1058900200158 
  0.7471    7.485       61.                                       1058900200159 
  0.7493    7.363       61.                                       1058900200160 
  0.7515    7.403       61.                                       1058900200161 
  0.7537    7.451       64.                                       1058900200162 
  0.7560    7.303       64.                                       1058900200163 
  0.7583    7.520       63.                                       1058900200164 
  0.7605    7.389       61.                                       1058900200165 
  0.7628    7.402       62.                                       1058900200166 
  0.7651    7.426       62.                                       1058900200167 
  0.7674    7.430       59.                                       1058900200168 
  0.7697    7.516       58.                                       1058900200169 
  0.7720    7.480       60.                                       1058900200170 
  0.7744    7.319       62.                                       1058900200171 
  0.7767    7.473       62.                                       1058900200172 
  0.7791    7.374       63.                                       1058900200173 
  0.7814    7.338       64.                                       1058900200174 
  0.7838    7.469       67.                                       1058900200175 
  0.7862    7.331       69.                                       1058900200176 
  0.7886    7.337       65.                                       1058900200177 
  0.7910    7.401       63.                                       1058900200178 
  0.7934    7.312       61.                                       1058900200179 
  0.7958    7.259       60.                                       1058900200180 
  0.7983    7.380       59.                                       1058900200181 
  0.8007    7.320       58.                                       1058900200182 
  0.8032    7.195       58.                                       1058900200183 
  0.8057    7.179       57.                                       1058900200184 
  0.8082    7.380       56.                                       1058900200185 
  0.8107    7.411       57.                                       1058900200186 
  0.8132    7.335       59.                                       1058900200187 
  0.8157    7.408       58.                                       1058900200188 
  0.8182    7.211       57.                                       1058900200189 
  0.8208    7.184       56.                                       1058900200190 
  0.8233    7.304       56.                                       1058900200191 
  0.8259    7.237       56.                                       1058900200192 
  0.8285    7.231       54.                                       1058900200193 
  0.8311    7.100       54.                                       1058900200194 
  0.8337    7.226       53.                                       1058900200195 
  0.8363    7.196       52.                                       1058900200196 
  0.8389    7.279       53.                                       1058900200197 
  0.8416    7.193       52.                                       1058900200198 
  0.8442    7.234       53.                                       1058900200199 
  0.8469    7.267       54.                                       1058900200200 
  0.8496    7.236       57.                                       1058900200201 
  0.8523    7.274       53.                                       1058900200202 
  0.8550    7.267       53.                                       1058900200203 
  0.8577    7.236       54.                                       1058900200204 
  0.8604    7.163       52.                                       1058900200205 
  0.8632    7.211       52.                                       1058900200206 
  0.8659    7.257       50.                                       1058900200207 
  0.8687    6.959       50.                                       1058900200208 
  0.8715    7.250       51.                                       1058900200209 
  0.8743    7.157       51.                                       1058900200210 
  0.8771    7.034       49.                                       1058900200211 
  0.8799    7.151       48.                                       1058900200212 
  0.8827    7.164       49.                                       1058900200213 
  0.8856    7.188       48.                                       1058900200214 
  0.8885    7.164       47.                                       1058900200215 
  0.8913    7.056       46.                                       1058900200216 
  0.8942    7.075       46.                                       1058900200217 
  0.8971    7.107       46.                                       1058900200218 
  0.9001    7.126       46.                                       1058900200219 
  0.9030    7.134       45.                                       1058900200220 
  0.9059    7.079       45.                                       1058900200221 
  0.9089    7.062       45.                                       1058900200222 
  0.9119    7.140       44.                                       1058900200223 
  0.9149    7.071       45.                                       1058900200224 
  0.9179    7.039       45.                                       1058900200225 
  0.9209    7.098       45.                                       1058900200226 
  0.9240    7.098       45.                                       1058900200227 
  0.9270    7.133       47.                                       1058900200228 
  0.9301    7.114       46.                                       1058900200229 
  0.9332    7.123       44.                                       1058900200230 
  0.9363    7.183       43.                                       1058900200231 
  0.9394    7.072       45.                                       1058900200232 
  0.9425    7.000       46.                                       1058900200233 
  0.9457    7.094       47.                                       1058900200234 
  0.9488    7.083       47.                                       1058900200235 
  0.9520    7.016       45.                                       1058900200236 
  0.9552    7.028       45.                                       1058900200237 
  0.9584    6.979       46.                                       1058900200238 
  0.9616    7.034       47.                                       1058900200239 
  0.9649    7.034       47.                                       1058900200240 
  0.9681    7.031       49.                                       1058900200241 
  0.9714    7.034       48.                                       1058900200242 
  0.9747    7.017       49.                                       1058900200243 
  0.9780    6.943       49.                                       1058900200244 
  0.9813    7.050       49.                                       1058900200245 
  0.9847    6.917       50.                                       1058900200246 
  0.9881    6.988       50.                                       1058900200247 
  0.9914    6.996       50.                                       1058900200248 
  0.9948    6.989       51.                                       1058900200249 
  0.9982    6.990       52.                                       1058900200250 
  1.0017    6.909       52.                                       1058900200251 
  1.0051    6.956       53.                                       1058900200252 
  1.0086    7.046       53.                                       1058900200253 
  1.0121    7.060       52.                                       1058900200254 
  1.0156    6.930       52.                                       1058900200255 
  1.0191    6.937       51.                                       1058900200256 
  1.0226    7.073       51.                                       1058900200257 
  1.0262    6.964       52.                                       1058900200258 
  1.0298    6.891       50.                                       1058900200259 
  1.0334    6.968       49.                                       1058900200260 
  1.0370    6.932       49.                                       1058900200261 
  1.0406    6.967       50.                                       1058900200262 
  1.0443    7.020       49.                                       1058900200263 
  1.0479    6.895       47.                                       1058900200264 
  1.0516    6.943       47.                                       1058900200265 
  1.0553    6.926       46.                                       1058900200266 
  1.0591    7.005       45.                                       1058900200267 
  1.0628    6.910       44.                                       1058900200268 
  1.0666    6.933       44.                                       1058900200269 
  1.0704    6.959       42.                                       1058900200270 
  1.0742    6.878       42.                                       1058900200271 
  1.0780    6.933       41.                                       1058900200272 
  1.0819    6.935       42.                                       1058900200273 
  1.0857    6.867       43.                                       1058900200274 
  1.0896    6.900       44.                                       1058900200275 
  1.0935    6.907       43.                                       1058900200276 
  1.0975    6.885       43.                                       1058900200277 
  1.1014    6.914       44.                                       1058900200278 
  1.1054    6.936       45.                                       1058900200279 
  1.1094    6.863       48.                                       1058900200280 
  1.1134    6.981       50.                                       1058900200281 
  1.1175    6.885       49.                                       1058900200282 
  1.1215    6.856       47.                                       1058900200283 
  1.1256    6.983       45.                                       1058900200284 
  1.1297    6.799       43.                                       1058900200285 
  1.1338    6.892       43.                                       1058900200286 
  1.1380    6.920       42.                                       1058900200287 
  1.1422    6.913       42.                                       1058900200288 
  1.1464    6.860       44.                                       1058900200289 
  1.1506    6.872       44.                                       1058900200290 
  1.1548    6.834       44.                                       1058900200291 
  1.1591    6.882       44.                                       1058900200292 
  1.1634    6.852       44.                                       1058900200293 
  1.1677    6.841       44.                                       1058900200294 
  1.1721    6.817       43.                                       1058900200295 
  1.1764    6.869       43.                                       1058900200296 
  1.1808    6.840       45.                                       1058900200297 
  1.1852    6.946       43.                                       1058900200298 
  1.1897    6.816       41.7                                      1058900200299 
  1.1942    6.849       41.7                                      1058900200300 
  1.1986    6.950       42.2                                      1058900200301 
  1.2032    6.902       43.0                                      1058900200302 
  1.2077    6.860       43.2                                      1058900200303 
  1.2123    6.842       42.8                                      1058900200304 
  1.2169    6.950       42.2                                      1058900200305 
  1.2215    6.907       43.7                                      1058900200306 
  1.2261    6.858       44.4                                      1058900200307 
  1.2308    6.768       45.5                                      1058900200308 
  1.2355    6.769       45.0                                      1058900200309 
  1.2402    6.843       43.9                                      1058900200310 
  1.2450    6.891       43.7                                      1058900200311 
  1.2498    6.851       46.0                                      1058900200312 
  1.2546    6.861       46.1                                      1058900200313 
  1.2594    6.983       46.2                                      1058900200314 
  1.2643    6.936       45.6                                      1058900200315 
  1.2692    6.843       45.3                                      1058900200316 
  1.2741    6.826       46.5                                      1058900200317 
  1.2790    6.846       45.8                                      1058900200318 
  1.2840    6.771       46.0                                      1058900200319 
  1.2890    6.851       47.7                                      1058900200320 
  1.2940    6.881       47.3                                      1058900200321 
  1.2991    6.840       48.0                                      1058900200322 
  1.3042    6.905       48.2                                      1058900200323 
  1.3093    6.894       48.8                                      1058900200324 
  1.3145    6.830       48.8                                      1058900200325 
  1.3197    6.844       48.1                                      1058900200326 
  1.3249    6.897       46.4                                      1058900200327 
  1.3301    6.969       45.7                                      1058900200328 
  1.3354    6.872       45.9                                      1058900200329 
  1.3407    6.857       47.2                                      1058900200330 
  1.3461    6.799       47.1                                      1058900200331 
  1.3515    6.804       45.7                                      1058900200332 
  1.3569    6.836       42.6                                      1058900200333 
  1.3623    6.879       40.7                                      1058900200334 
  1.3678    6.810       41.1                                      1058900200335 
  1.3733    6.901       42.6                                      1058900200336 
  1.3788    6.890       43.3                                      1058900200337 
  1.3844    6.904       43.3                                      1058900200338 
  1.3900    6.847       43.3                                      1058900200339 
  1.3957    6.826       43.4                                      1058900200340 
  1.4013    6.894       42.5                                      1058900200341 
  1.4070    6.913       41.6                                      1058900200342 
  1.4128    6.853       41.1                                      1058900200343 
  1.4186    6.807       40.7                                      1058900200344 
  1.4244    6.941       41.2                                      1058900200345 
  1.4302    6.917       42.1                                      1058900200346 
  1.4361    6.898       41.8                                      1058900200347 
  1.4420    6.928       40.9                                      1058900200348 
  1.4480    6.927       40.6                                      1058900200349 
  1.4540    6.934       39.4                                      1058900200350 
  1.4600    6.864       40.0                                      1058900200351 
  1.4661    6.867       39.6                                      1058900200352 
  1.4722    6.907       39.5                                      1058900200353 
  1.4784    6.875       38.6                                      1058900200354 
  1.4846    6.871       38.3                                      1058900200355 
  1.4908    6.953       38.1                                      1058900200356 
  1.4971    6.992       37.7                                      1058900200357 
  1.5034    6.952       38.3                                      1058900200358 
  1.5097    6.859       38.7                                      1058900200359 
  1.5161    6.923       39.0                                      1058900200360 
  1.5225    6.931       39.6                                      1058900200361 
  1.5290    6.930       39.7                                      1058900200362 
  1.5355    6.905       40.3                                      1058900200363 
  1.5421    6.976       39.4                                      1058900200364 
  1.5487    7.010       38.5                                      1058900200365 
  1.5553    6.996       38.6                                      1058900200366 
  1.5620    6.967       38.2                                      1058900200367 
  1.5687    6.925       38.1                                      1058900200368 
  1.5755    6.971       38.5                                      1058900200369 
  1.5823    6.947       39.2                                      1058900200370 
  1.5891    7.049       41.9                                      1058900200371 
  1.5960    6.957       42.0                                      1058900200372 
  1.6030    7.099       40.4                                      1058900200373 
  1.6100    6.909       39.6                                      1058900200374 
  1.6170    6.993       38.2                                      1058900200375 
  1.6241    7.020       38.1                                      1058900200376 
  1.6312    7.031       37.6                                      1058900200377 
  1.6384    6.937       37.7                                      1058900200378 
  1.6456    6.950       42.0                                      1058900200379 
  1.6529    6.970       40.1                                      1058900200380 
  1.6602    7.006       39.1                                      1058900200381 
  1.6676    7.022       38.8                                      1058900200382 
  1.6750    7.013       38.2                                      1058900200383 
  1.6824    6.986       38.7                                      1058900200384 
  1.6900    7.029       39.6                                      1058900200385 
  1.6975    7.084       39.4                                      1058900200386 
  1.7051    7.001       39.1                                      1058900200387 
  1.7128    7.015       39.6                                      1058900200388 
  1.7205    7.057       39.8                                      1058900200389 
  1.7283    7.065       39.9                                      1058900200390 
  1.7361    7.106       43.1                                      1058900200391 
  1.7440    7.054       42.6                                      1058900200392 
  1.7519    7.117       41.8                                      1058900200393 
  1.7599    7.001       41.1                                      1058900200394 
  1.7680    7.039       41.1                                      1058900200395 
  1.7761    7.125       41.8                                      1058900200396 
  1.7842    7.080       41.1                                      1058900200397 
  1.7924    7.146       40.3                                      1058900200398 
  1.8007    7.058       39.5                                      1058900200399 
  1.8090    7.096       38.6                                      1058900200400 
  1.8174    7.096       38.4                                      1058900200401 
  1.8258    7.146       40.2                                      1058900200402 
  1.8343    7.110       39.3                                      1058900200403 
  1.8429    7.136       38.2                                      1058900200404 
  1.8515    7.098       39.1                                      1058900200405 
  1.8602    7.139       38.3                                      1058900200406 
  1.8689    7.152       38.1                                      1058900200407 
  1.8777    7.136       38.6                                      1058900200408 
  1.8866    7.142       39.4                                      1058900200409 
  1.8955    7.146       41.4                                      1058900200410 
  1.9045    7.246       41.4                                      1058900200411 
  1.9136    7.147       40.7                                      1058900200412 
  1.9227    7.184       40.5                                      1058900200413 
  1.9319    7.223       40.6                                      1058900200414 
  1.9412    7.170       39.9                                      1058900200415 
  1.9505    7.232       39.9                                      1058900200416 
  1.9599    7.253       38.3                                      1058900200417 
  1.9693    7.240       37.9                                      1058900200418 
  1.9788    7.227       38.5                                      1058900200419 
  1.9884    7.202       39.5                                      1058900200420 
  1.9981    7.189       39.8                                      1058900200421 
  2.0078    7.161       40.3                                      1058900200422 
  2.0176    7.240       40.0                                      1058900200423 
  2.0275    7.340       40.0                                      1058900200424 
  2.0375    7.364       41.1                                      1058900200425 
  2.0475    7.277       39.8                                      1058900200426 
  2.0576    7.308       40.4                                      1058900200427 
  2.0677    7.354       44.5                                      1058900200428 
  2.0780    7.269       43.1                                      1058900200429 
  2.0883    7.384       40.3                                      1058900200430 
  2.0987    7.338       40.4                                      1058900200431 
  2.1092    7.323       39.8                                      1058900200432 
  2.1198    7.338       39.6                                      1058900200433 
  2.1304    7.296       39.6                                      1058900200434 
  2.1411    7.389       40.1                                      1058900200435 
  2.1519    7.304       40.9                                      1058900200436 
  2.1628    7.341       40.8                                      1058900200437 
  2.1738    7.392       40.8                                      1058900200438 
  2.1848    7.376       40.5                                      1058900200439 
  2.1959    7.432       41.1                                      1058900200440 
  2.2072    7.379       41.2                                      1058900200441 
  2.2185    7.441       41.1                                      1058900200442 
  2.2299    7.338       40.6                                      1058900200443 
  2.2413    7.406       40.7                                      1058900200444 
  2.2529    7.503       40.5                                      1058900200445 
  2.2646    7.483       41.4                                      1058900200446 
  2.2763    7.446       41.2                                      1058900200447 
  2.2882    7.493       41.3                                      1058900200448 
  2.3001    7.533       42.                                       1058900200449 
  2.3121    7.477       41.                                       1058900200450 
  2.3242    7.450       41.                                       1058900200451 
  2.3365    7.503       41.                                       1058900200452 
  2.3488    7.499       41.                                       1058900200453 
  2.3612    7.532       40.                                       1058900200454 
  2.3737    7.518       41.                                       1058900200455 
  2.3863    7.526       42.                                       1058900200456 
  2.3990    7.534       44.                                       1058900200457 
  2.4118    7.554       44.                                       1058900200458 
  2.4247    7.605       44.                                       1058900200459 
  2.4378    7.559       43.                                       1058900200460 
  2.4509    7.572       43.                                       1058900200461 
  2.4641    7.631       44.                                       1058900200462 
  2.4775    7.538       45.                                       1058900200463 
  2.4909    7.601       47.                                       1058900200464 
  2.5045    7.629       47.                                       1058900200465 
  2.5181    7.569       46.                                       1058900200466 
  2.5319    7.564       47.                                       1058900200467 
  2.5458    7.590       47.                                       1058900200468 
  2.5598    7.637       49.                                       1058900200469 
  2.5740    7.648       48.                                       1058900200470 
  2.5882    7.677       46.                                       1058900200471 
  2.6026    7.619       46.                                       1058900200472 
  2.6171    7.663       46.                                       1058900200473 
  2.6317    7.633       46.                                       1058900200474 
  2.6464    7.667       47.                                       1058900200475 
  2.6612    7.674       46.                                       1058900200476 
  2.6762    7.692       46.                                       1058900200477 
  2.6913    7.834       46.                                       1058900200478 
  2.7066    7.814       47.                                       1058900200479 
  2.7219    7.725       46.                                       1058900200480 
  2.7374    7.725       46.                                       1058900200481 
  2.7530    7.745       48.                                       1058900200482 
  2.7688    7.768       49.                                       1058900200483 
  2.7847    7.635       48.                                       1058900200484 
  2.8007    7.846       48.                                       1058900200485 
  2.8169    7.708       47.                                       1058900200486 
  2.8332    7.746       48.                                       1058900200487 
  2.8497    7.786       48.                                       1058900200488 
  2.8663    7.770       49.                                       1058900200489 
  2.8830    7.813       50.                                       1058900200490 
  2.8999    7.724       51.                                       1058900200491 
  2.9170    7.712       51.                                       1058900200492 
  2.9342    7.890       53.                                       1058900200493 
  2.9515    7.855       52.                                       1058900200494 
  2.9690    7.871       49.                                       1058900200495 
  2.9867    7.772       49.                                       1058900200496 
  3.0045    7.823       49.                                       1058900200497 
  3.0225    7.825       48.                                       1058900200498 
  3.0406    7.784       48.                                       1058900200499 
  3.0589    7.896       49.                                       1058900200500 
  3.0774    7.782       49.                                       1058900200501 
  3.0960    7.891       49.                                       1058900200502 
  3.1148    7.921       50.                                       1058900200503 
  3.1338    7.849       51.                                       1058900200504 
  3.1529    7.942       51.                                       1058900200505 
  3.1723    7.966       52.                                       1058900200506 
  3.1918    8.045       54.                                       1058900200507 
  3.2115    7.943       54.                                       1058900200508 
  3.2313    7.926       54.                                       1058900200509 
  3.2514    8.001       55.                                       1058900200510 
  3.2716    7.968       55.                                       1058900200511 
  3.2921    7.988       55.                                       1058900200512 
  3.3127    7.944       55.                                       1058900200513 
  3.3335    7.941       55.                                       1058900200514 
  3.3545    7.990       56.                                       1058900200515 
  3.3758    7.896       55.                                       1058900200516 
  3.3972    8.057       55.                                       1058900200517 
  3.4188    7.943       55.                                       1058900200518 
  3.4406    7.990       56.                                       1058900200519 
  3.4627    7.971       56.                                       1058900200520 
  3.4849    7.783       57.                                       1058900200521 
  3.5074    7.942       57.                                       1058900200522 
  3.5301    7.818       57.                                       1058900200523 
  3.5530    8.033       58.                                       1058900200524 
  3.5762    8.043       57.                                       1058900200525 
  3.5995    7.930       57.                                       1058900200526 
  3.6231    7.992       57.                                       1058900200527 
  3.6469    7.881       55.                                       1058900200528 
  3.6710    8.006       56.                                       1058900200529 
  3.6953    8.034       56.                                       1058900200530 
  3.7199    8.027       56.                                       1058900200531 
  3.7447    7.958       59.                                       1058900200532 
  3.7697    7.967       57.                                       1058900200533 
  3.7950    7.918       55.                                       1058900200534 
  3.8205    8.084       55.                                       1058900200535 
  3.8463    8.014       54.                                       1058900200536 
  3.8724    7.928       53.                                       1058900200537 
  3.8988    7.930       54.                                       1058900200538 
  3.9254    7.983       54.                                       1058900200539 
  3.9522    8.051       53.                                       1058900200540 
  3.9794    7.980       53.                                       1058900200541 
  4.0068    7.908       53.                                       1058900200542 
  4.0346    7.982       52.                                       1058900200543 
  4.0626    7.898       51.                                       1058900200544 
  4.0909    7.825       51.                                       1058900200545 
  4.1195    7.833       52.                                       1058900200546 
  4.1484    7.932       53.                                       1058900200547 
  4.1776    7.813       53.                                       1058900200548 
  4.2072    7.887       51.                                       1058900200549 
  4.2370    7.858       51.                                       1058900200550 
  4.2672    7.906       51.                                       1058900200551 
  4.2976    7.786       52.                                       1058900200552 
  4.3285    7.958       52.                                       1058900200553 
  4.3596    7.857       51.                                       1058900200554 
  4.3911    7.871       49.                                       1058900200555 
  4.4229    7.848       49.                                       1058900200556 
  4.4551    7.816       48.                                       1058900200557 
  4.4876    7.980       49.                                       1058900200558 
  4.5205    7.887       49.                                       1058900200559 
  4.5538    7.888       49.                                       1058900200560 
  4.5874    7.852       48.                                       1058900200561 
  4.6214    7.799       48.                                       1058900200562 
  4.6557    7.751       47.                                       1058900200563 
  4.6905    7.817       46.                                       1058900200564 
  4.7257    7.793       45.                                       1058900200565 
  4.7612    7.680       46.                                       1058900200566 
  4.7972    7.637       46.                                       1058900200567 
  4.8335    7.673       45.                                       1058900200568 
  4.8703    7.703       45.                                       1058900200569 
  4.9075    7.695       45.                                       1058900200570 
  4.9451    7.730       44.                                       1058900200571 
  4.9832    7.613       45.                                       1058900200572 
  5.0217    7.655       45.                                       1058900200573 
  5.0607    7.649       46.                                       1058900200574 
  5.1001    7.614       48.                                       1058900200575 
  5.1400    7.640       46.                                       1058900200576 
  5.1803    7.709       45.                                       1058900200577 
  5.2211    7.490       45.                                       1058900200578 
  5.2625    7.483       45.                                       1058900200579 
  5.3043    7.536       45.                                       1058900200580 
  5.3466    7.523       45.                                       1058900200581 
  5.3894    7.405       43.                                       1058900200582 
  5.4327    7.391       42.                                       1058900200583 
  5.4766    7.417       42.                                       1058900200584 
  5.5210    7.352       42.                                       1058900200585 
  5.5659    7.458       44.                                       1058900200586 
  5.6114    7.378       44.                                       1058900200587 
  5.6575    7.394       43.                                       1058900200588 
  5.7041    7.247       42.                                       1058900200589 
  5.7513    7.314       41.                                       1058900200590 
  5.7991    7.203       41.                                       1058900200591 
  5.8475    7.174       41.                                       1058900200592 
  5.8965    7.288       41.                                       1058900200593 
  5.9461    7.267       40.                                       1058900200594 
  5.9964    7.135       40.                                       1058900200595 
  6.0473    7.116       40.                                       1058900200596 
  6.0989    7.023       40.                                       1058900200597 
  6.1511    7.059       40.                                       1058900200598 
  6.2040    6.978       40.                                       1058900200599 
  6.2576    6.968       40.                                       1058900200600 
  6.3118    6.987       40.                                       1058900200601 
  6.3668    6.944       40.                                       1058900200602 
  6.4225    6.919       39.                                       1058900200603 
  6.4790    6.927       39.                                       1058900200604 
  6.5362    6.954       39.                                       1058900200605 
  6.5942    6.829       38.                                       1058900200606 
  6.6529    6.837       38.                                       1058900200607 
  6.7125    6.807       38.                                       1058900200608 
  6.7728    6.719       38.                                       1058900200609 
  6.8340    6.750       38.                                       1058900200610 
  6.8960    6.712       38.                                       1058900200611 
  6.9588    6.784       38.                                       1058900200612 
  7.0225    6.627       38.                                       1058900200613 
  7.0871    6.670       39.                                       1058900200614 
  7.1526    6.640       39.                                       1058900200615 
  7.2190    6.576       40.                                       1058900200616 
  7.2864    6.543       40.                                       1058900200617 
  7.3547    6.558       41.                                       1058900200618 
  7.4240    6.571       41.                                       1058900200619 
  7.4942    6.522       40.                                       1058900200620 
  7.5655    6.457       40.                                       1058900200621 
  7.6378    6.490       41.                                       1058900200622 
  7.7111    6.387       42.                                       1058900200623 
  7.7855    6.336       42.                                       1058900200624 
  7.8610    6.475       42.                                       1058900200625 
  7.9375    6.392       41.                                       1058900200626 
  8.0153    6.382       40.                                       1058900200627 
  8.0941    6.273       41.                                       1058900200628 
  8.1742    6.278       41.                                       1058900200629 
  8.2554    6.287       42.                                       1058900200630 
  8.3379    6.271       42.                                       1058900200631 
  8.4216    6.262       42.                                       1058900200632 
  8.5066    6.158       42.                                       1058900200633 
  8.5929    6.214       43.                                       1058900200634 
  8.6805    6.213       44.                                       1058900200635 
  8.7695    6.132       44.                                       1058900200636 
  8.8598    6.023       44.                                       1058900200637 
  8.9516    6.135       44.                                       1058900200638 
  9.0447    6.071       45.                                       1058900200639 
  9.1394    6.076       45.                                       1058900200640 
  9.2356    6.081       46.                                       1058900200641 
  9.3333    6.104       47.                                       1058900200642 
  9.4326    6.014       48.                                       1058900200643 
  9.5334    6.033       48.                                       1058900200644 
  9.6360    6.064       49.                                       1058900200645 
  9.7401    5.953       50.                                       1058900200646 
  9.8460    5.914       50.                                       1058900200647 
  9.9536    5.905       51.                                       1058900200648 
 10.0631    5.998       52.                                       1058900200649 
 10.1743    5.883       53.                                       1058900200650 
 10.2874    5.861       54.                                       1058900200651 
 10.4024    5.911       54.                                       1058900200652 
 10.5194    5.877       54.                                       1058900200653 
 10.6383    5.911       55.                                       1058900200654 
 10.7593    5.844       56.                                       1058900200655 
 10.8823    5.895       57.                                       1058900200656 
 11.0076    5.873       58.                                       1058900200657 
 11.1350    5.788       59.                                       1058900200658 
 11.2646    5.872       60.                                       1058900200659 
 11.3965    5.790       61.                                       1058900200660 
 11.5308    5.776       62.                                       1058900200661 
 11.6675    5.834       63.                                       1058900200662 
 11.8066    5.796       64.                                       1058900200663 
 11.9483    5.720       65.                                       1058900200664 
 12.0925    5.910       66.                                       1058900200665 
 12.2394    5.823       67.                                       1058900200666 
 12.3890    5.739       68.                                       1058900200667 
 12.5413    5.838       69.                                       1058900200668 
 12.6966    5.845       71.                                       1058900200669 
 12.8547    5.846       72.                                       1058900200670 
 13.0159    5.886       72.                                       1058900200671 
 13.1801    5.875       74.                                       1058900200672 
 13.3474    5.903       75.                                       1058900200673 
 13.5180    5.944       77.                                       1058900200674 
 13.6919    5.934       78.                                       1058900200675 
 13.8693    5.695       79.                                       1058900200676 
 14.0500    5.750       80.                                       1058900200677 
 14.2344    5.762       82.                                       1058900200678 
 14.4225    5.981       83.                                       1058900200679 
 14.6143    6.004       85.                                       1058900200680 
 14.8100    5.971       86.                                       1058900200681 
 15.0097    6.010       87.                                       1058900200682 
 15.2135    5.857       90.                                       1058900200683 
 15.4216    6.121       91.                                       1058900200684 
 15.6339    5.932       92.                                       1058900200685 
 15.8507    6.000       95.                                       1058900200686 
 16.0721    6.123       96.                                       1058900200687 
 16.2982    6.319       99.                                       1058900200688 
 16.5292    5.974       99.                                       1058900200689 
 16.7651    6.087      102.                                       1058900200690 
 17.0062    6.050      104.                                       1058900200691 
 17.2526    6.104      107.                                       1058900200692 
 17.5043    6.331      108.                                       1058900200693 
 17.7617    6.228      111.                                       1058900200694 
 18.0249    6.197      114.                                       1058900200695 
 18.2941    6.089      116.                                       1058900200696 
 18.5693    6.223      121.                                       1058900200697 
 18.8509    6.186      124.                                       1058900200698 
 19.1390    6.494      127.                                       1058900200699 
 19.4339    6.276      129.                                       1058900200700 
 19.7356    6.377      135.                                       1058900200701 
 20.0445    6.485      137.                                       1058900200702 
 20.3609    6.277      138.                                       1058900200703 
 20.6848    6.417      145.                                       1058900200704 
 21.0166    6.406      149.                                       1058900200705 
 21.3565    6.712      155.                                       1058900200706 
 21.7050    6.236      160.                                       1058900200707 
 22.0621    5.871      161.                                       1058900200708 
 22.4281    5.994      163.                                       1058900200709 
 22.8035    6.285      174.                                       1058900200710 
 23.1885    6.492      177.                                       1058900200711 
 23.5834    6.307      184.                                       1058900200712 
 23.9886    6.506      187.                                       1058900200713 
 24.4046    6.539      197.                                       1058900200714 
 24.8315    6.718      202.                                       1058900200715 
 25.2700    6.275      212.                                       1058900200716 
 25.7203    6.399      221.                                       1058900200717 
 26.1829    6.058      225.                                       1058900200718 
 26.6582    6.562      238.                                       1058900200719 
 27.1469    6.852      253.                                       1058900200720 
 27.6493    6.271      255.                                       1058900200721 
 28.1660    6.415      270.                                       1058900200722 
 28.6975    6.922      291.                                       1058900200723 
 29.2444    6.699      316.                                       1058900200724 
 29.8074    6.053      313.                                       1058900200725 
 30.3871    6.543      348.                                       1058900200726 
 30.9841    6.002      355.                                       1058900200727 
ENDDATA            721          0                                 1058900200728 
ENDSUBENT          727          0                                 1058900299999 
ENDENTRY             2          0                                 1058999999999 
