ENTRY            10687   20140413                             14011068700000001 
SUBENT        10687001   20140413                             14011068700100001 
BIB                  6         17                                 1068700100002 
INSTITUTE  (1USABNL,1USARPI,2JPNKTO)                              1068700100003 
REFERENCE  (J,NSE,67,326,197809)                                  1068700100004 
           ((J,YK,1978,(3/30),51,1978)=                           1068700100005 
           (R,INDC(CCP)-134,51,1978)) (in English) Prelim.        1068700100006 
             cross sect. Sc and Fe.                               1068700100007 
           (J,PL/B,71,311,197711) - Resonance parameters          1068700100008 
           (C,77NBS,,255,197703) - Prelim. cross sect. Sc and Fe. 1068700100009 
AUTHOR     (H.I.Liou,R.E.Chrien,R.C.Block,K.Kobayashi)            1068700100010 
TITLE      The Total Neutron Cross Section of Scandium from 0.005 1068700100011 
           to 22 keV.                                             1068700100012 
STATUS     (APRVD) Approved by H.Liou, 1978/6/6.                  1068700100013 
HISTORY    (19780123C)                                            1068700100014 
           (19781002U) REFERENCE updated.                         1068700100015 
           (19781212A) REFERENCE update. BIB correction.          1068700100016 
           (19931227A) INSTITUTE corrected                        1068700100017 
           (20080928A) Formats updated. BIB updates.              1068700100018 
           (20140413U) SD: Ref. YK,1978,(3/30),51 added.          1068700100019 
ENDBIB              17          0                                 1068700100020 
NOCOMMON             0          0                                 1068700100021 
ENDSUBENT           20          0                                 1068700199999 
SUBENT        10687002   20080928                             13501068700200001 
BIB                  8         11                                 1068700200002 
REACTION   (21-SC-45(N,TOT),,SIG)                                 1068700200003 
FACILITY   (LINAC,1USARPI) RPI electron linac.                    1068700200004 
INC-SOURCE (EVAP). H2O-cooled Ta target.                          1068700200005 
SAMPLE     First measurement used 10.2 cm Sc sample. 15.2 and 30.51068700200006 
            cm samples cycled into the beam to obtain accurate    1068700200007 
            data near minima.                                     1068700200008 
METHOD     (TOF). 28.32-m flight path.                            1068700200009 
DETECTOR   (NAICR) 10B-NaI detector.                              1068700200010 
CORRECTION Corrected for dead-time, background and air            1068700200011 
            displacement by sample.                               1068700200012 
ERR-ANALYS (DATA-ERR) No informationon source of uncertainties.   1068700200013 
ENDBIB              11          0                                 1068700200014 
NOCOMMON             0          0                                 1068700200015 
DATA                 3        872                                 1068700200016 
EN         DATA       DATA-ERR                                    1068700200017 
EV         B          B                                           1068700200018 
      412.2      6.877       .222                                 1068700200019 
      416.8      6.133       .221                                 1068700200020 
      421.5      6.224       .218                                 1068700200021 
      426.3      6.284       .219                                 1068700200022 
      431.2      5.707       .220                                 1068700200023 
      436.2      6.553       .216                                 1068700200024 
      441.2      6.381       .214                                 1068700200025 
      446.4      6.036       .214                                 1068700200026 
      451.6      5.973       .213                                 1068700200027 
      454.6      6.200       .638                                 1068700200028 
      455.1      6.035       .639                                 1068700200029 
      455.7      5.855       .640                                 1068700200030 
      456.3      6.244       .623                                 1068700200031 
      456.9      6.122       .626                                 1068700200032 
      457.5      6.751       .627                                 1068700200033 
      458.1      7.094       .629                                 1068700200034 
      458.7      8.695       .665                                 1068700200035 
      459.3      9.869       .702                                 1068700200036 
      459.9     11.527       .726                                 1068700200037 
      460.5     13.000       .781                                 1068700200038 
      461.1     11.944       .763                                 1068700200039 
      461.7      9.666       .709                                 1068700200040 
      462.3      8.464       .682                                 1068700200041 
      463.0      7.685       .647                                 1068700200042 
      463.6      6.409       .655                                 1068700200043 
      464.2      6.991       .632                                 1068700200044 
      464.8      6.094       .634                                 1068700200045 
      467.9      5.941       .211                                 1068700200046 
      473.5      5.697       .208                                 1068700200047 
      479.2      5.891       .207                                 1068700200048 
      485.0      5.321       .207                                 1068700200049 
      490.9      5.519       .204                                 1068700200050 
      497.0      5.666       .204                                 1068700200051 
      503.1      5.567       .201                                 1068700200052 
      507.8      4.993       .281                                 1068700200053 
      511.0      5.299       .285                                 1068700200054 
      514.1      5.570       .281                                 1068700200055 
      517.4      5.002       .280                                 1068700200056 
      520.6      4.774       .280                                 1068700200057 
      523.9      5.083       .280                                 1068700200058 
      527.2      4.896       .279                                 1068700200059 
      530.5      4.696       .276                                 1068700200060 
      533.9      4.840       .276                                 1068700200061 
      537.3      4.889       .278                                 1068700200062 
      540.8      5.248       .276                                 1068700200063 
      544.2      4.978       .275                                 1068700200064 
      547.7      5.205       .274                                 1068700200065 
      551.3      5.305       .273                                 1068700200066 
      554.9      5.191       .271                                 1068700200067 
      558.5      4.898       .274                                 1068700200068 
      562.1      4.979       .271                                 1068700200069 
      565.8      4.482       .271                                 1068700200070 
      569.5      5.093       .268                                 1068700200071 
      573.3      4.313       .270                                 1068700200072 
      577.1      4.791       .269                                 1068700200073 
      580.9      4.639       .268                                 1068700200074 
      584.8      4.812       .267                                 1068700200075 
      588.7      4.689       .268                                 1068700200076 
      592.6      4.260       .264                                 1068700200077 
      596.6      4.981       .263                                 1068700200078 
      600.6      4.829       .262                                 1068700200079 
      604.7      4.411       .261                                 1068700200080 
      608.8      4.612       .259                                 1068700200081 
      612.9      4.472       .258                                 1068700200082 
      617.1      4.837       .256                                 1068700200083 
      621.4      4.501       .256                                 1068700200084 
      625.6      3.954       .257                                 1068700200085 
      630.0      4.063       .258                                 1068700200086 
      634.3      4.483       .253                                 1068700200087 
      638.8      3.754       .254                                 1068700200088 
      643.2      3.556       .252                                 1068700200089 
      647.7      4.412       .252                                 1068700200090 
      652.3      4.006       .253                                 1068700200091 
      656.9      4.395       .250                                 1068700200092 
      661.5      4.379       .249                                 1068700200093 
      666.2      4.179       .252                                 1068700200094 
      671.0      3.972       .250                                 1068700200095 
      675.8      3.507       .250                                 1068700200096 
      680.6      3.634       .248                                 1068700200097 
      685.5      4.029       .248                                 1068700200098 
      690.5      3.727       .246                                 1068700200099 
      695.5      3.936       .246                                 1068700200100 
      700.6      3.531       .244                                 1068700200101 
      705.7      4.072       .241                                 1068700200102 
      710.9      3.848       .243                                 1068700200103 
      716.1      3.557       .242                                 1068700200104 
      721.4      3.442       .243                                 1068700200105 
      726.8      3.774       .241                                 1068700200106 
      732.2      4.030       .242                                 1068700200107 
      737.7      3.453       .241                                 1068700200108 
      743.2      3.082       .240                                 1068700200109 
      748.8      2.953       .239                                 1068700200110 
      754.5      3.714       .237                                 1068700200111 
      760.2      3.341       .238                                 1068700200112 
      766.0      3.541       .236                                 1068700200113 
      771.9      3.467       .235                                 1068700200114 
      777.8      3.292       .234                                 1068700200115 
      783.8      3.048       .234                                 1068700200116 
      789.8      2.768       .232                                 1068700200117 
      796.0      2.862       .235                                 1068700200118 
      802.2      2.994       .235                                 1068700200119 
      814.6      3.361       .139                                 1068700200120 
      821.0      3.146       .129                                 1068700200121 
      827.5      3.037       .121                                 1068700200122 
      834.1      2.773       .112                                 1068700200123 
      840.8      2.778       .113                                 1068700200124 
      847.5      3.152       .125                                 1068700200125 
      854.4      3.013       .116                                 1068700200126 
      861.3      2.788       .111                                 1068700200127 
      868.3      2.751       .107                                 1068700200128 
      875.4      2.752       .106                                 1068700200129 
      882.5      2.826       .110                                 1068700200130 
      889.8      2.803       .106                                 1068700200131 
      897.1      2.474       .096                                 1068700200132 
      904.6      2.623       .100                                 1068700200133 
      912.1      2.547       .097                                 1068700200134 
      919.7      2.616       .098                                 1068700200135 
      927.4      2.457       .093                                 1068700200136 
      935.3      2.395       .091                                 1068700200137 
      943.2      2.530       .093                                 1068700200138 
      951.2      2.423       .089                                 1068700200139 
      959.3      2.434       .090                                 1068700200140 
      967.6      2.464       .090                                 1068700200141 
      975.9      2.420       .087                                 1068700200142 
      984.3      2.324       .084                                 1068700200143 
      992.9      2.421       .085                                 1068700200144 
     1001.5      2.239       .080                                 1068700200145 
     1010.3      2.349       .082                                 1068700200146 
     1019.2      2.157       .078                                 1068700200147 
     1028.2      2.237       .078                                 1068700200148 
     1037.4      2.192       .078                                 1068700200149 
     1046.6      2.236       .077                                 1068700200150 
     1056.0      2.465       .092                                 1068700200151 
     1057.1      3.250       .660                                 1068700200152 
     1058.1      3.675       .654                                 1068700200153 
     1059.2      4.499       .670                                 1068700200154 
     1060.2      5.632       .652                                 1068700200155 
     1061.3      4.802       .664                                 1068700200156 
     1062.3      3.788       .659                                 1068700200157 
     1063.4      3.887       .639                                 1068700200158 
     1064.5      3.311       .634                                 1068700200159 
     1075.1      2.129       .073                                 1068700200160 
     1084.9      1.994       .071                                 1068700200161 
     1094.8      1.959       .071                                 1068700200162 
     1104.8      1.913       .068                                 1068700200163 
     1115.0      1.868       .068                                 1068700200164 
     1125.3      1.828       .066                                 1068700200165 
     1135.8      1.765       .064                                 1068700200166 
     1146.4      1.849       .065                                 1068700200167 
     1157.1      1.749       .063                                 1068700200168 
     1168.0      1.854       .064                                 1068700200169 
     1179.1      1.660       .061                                 1068700200170 
     1190.3      1.739       .061                                 1068700200171 
     1201.7      1.636       .059                                 1068700200172 
     1213.2      1.590       .058                                 1068700200173 
     1225.0      1.601       .057                                 1068700200174 
     1236.8      1.478       .056                                 1068700200175 
     1248.9      1.582       .056                                 1068700200176 
     1261.1      1.399       .055                                 1068700200177 
     1273.5      1.480       .054                                 1068700200178 
     1286.1      1.462       .054                                 1068700200179 
     1298.9      1.424       .053                                 1068700200180 
     1311.9      1.298       .052                                 1068700200181 
     1325.1      1.416       .052                                 1068700200182 
     1338.4      1.343       .051                                 1068700200183 
     1352.0      1.413       .051                                 1068700200184 
     1365.8      1.330       .050                                 1068700200185 
     1379.8      1.271       .049                                 1068700200186 
     1394.0      1.181       .049                                 1068700200187 
     1408.4      1.263       .048                                 1068700200188 
     1423.1      1.164       .047                                 1068700200189 
     1438.0      1.207       .047                                 1068700200190 
     1453.1      1.229       .047                                 1068700200191 
     1468.4      1.084       .045                                 1068700200192 
     1484.1      1.096       .045                                 1068700200193 
     1499.9      1.030       .045                                 1068700200194 
     1516.0      1.129       .044                                 1068700200195 
     1532.4      1.049       .043                                 1068700200196 
     1549.0      1.037       .043                                 1068700200197 
     1565.9       .994       .043                                 1068700200198 
     1583.1       .964       .042                                 1068700200199 
     1600.6      1.000       .041                                 1068700200200 
     1618.4       .930       .023                                 1068700200201 
     1636.4       .911       .023                                 1068700200202 
     1654.8       .896       .022                                 1068700200203 
     1673.5       .892       .022                                 1068700200204 
     1692.5       .832       .022                                 1068700200205 
     1711.8       .860       .021                                 1068700200206 
     1731.4       .880       .021                                 1068700200207 
     1751.4       .776       .020                                 1068700200208 
     1771.8       .802       .021                                 1068700200209 
     1792.5       .800       .020                                 1068700200210 
     1813.5       .799       .020                                 1068700200211 
     1835.0       .812       .020                                 1068700200212 
     1856.8       .760       .020                                 1068700200213 
     1879.0       .760       .020                                 1068700200214 
     1901.6       .736       .019                                 1068700200215 
     1924.6       .747       .020                                 1068700200216 
     1948.1       .744       .020                                 1068700200217 
     1971.9       .730       .019                                 1068700200218 
     1996.3       .704       .020                                 1068700200219 
     2021.0       .728       .020                                 1068700200220 
     2046.3       .699       .020                                 1068700200221 
     2072.0       .725       .020                                 1068700200222 
     2098.2       .727       .019                                 1068700200223 
     2124.8       .748       .020                                 1068700200224 
     2152.1       .761       .020                                 1068700200225 
     2179.8       .752       .019                                 1068700200226 
     2208.1       .732       .019                                 1068700200227 
     2236.9       .786       .020                                 1068700200228 
     2266.3       .823       .020                                 1068700200229 
     2296.3       .865       .020                                 1068700200230 
     2326.8       .899       .021                                 1068700200231 
     2358.0       .930       .021                                 1068700200232 
     2379.2       .913       .066                                 1068700200233 
     2389.8       .922       .066                                 1068700200234 
     2400.6       .993       .066                                 1068700200235 
     2411.4      1.023       .066                                 1068700200236 
     2422.3       .994       .068                                 1068700200237 
     2433.3      1.051       .068                                 1068700200238 
     2444.3      1.117       .069                                 1068700200239 
     2455.4      1.132       .071                                 1068700200240 
     2466.6      1.137       .070                                 1068700200241 
     2477.9      1.158       .072                                 1068700200242 
     2489.3      1.249       .073                                 1068700200243 
     2500.7      1.222       .074                                 1068700200244 
     2512.2      1.284       .075                                 1068700200245 
     2523.8      1.456       .078                                 1068700200246 
     2535.5      1.484       .085                                 1068700200247 
     2547.2      1.440       .084                                 1068700200248 
     2559.0      1.370       .080                                 1068700200249 
     2570.9      1.439       .079                                 1068700200250 
     2582.9      1.319       .079                                 1068700200251 
     2595.0      1.434       .080                                 1068700200252 
     2607.2      1.659       .084                                 1068700200253 
     2619.4      1.597       .083                                 1068700200254 
     2631.8      1.668       .087                                 1068700200255 
     2644.2      1.755       .088                                 1068700200256 
     2656.7      1.675       .090                                 1068700200257 
     2669.3      1.886       .092                                 1068700200258 
     2682.0      1.699       .092                                 1068700200259 
     2694.8      2.034       .100                                 1068700200260 
     2707.7      2.281       .108                                 1068700200261 
     2720.6      2.229       .114                                 1068700200262 
     2733.7      2.379       .116                                 1068700200263 
     2746.9      2.407       .120                                 1068700200264 
     2760.1      2.310       .115                                 1068700200265 
     2773.5      2.585       .124                                 1068700200266 
     2786.9      2.704       .129                                 1068700200267 
     2796.9      3.061       .292                                 1068700200268 
     2810.5      3.500       .290                                 1068700200269 
     2824.2      2.880       .291                                 1068700200270 
     2838.0      3.367       .288                                 1068700200271 
     2851.9      3.590       .288                                 1068700200272 
     2865.9      3.574       .291                                 1068700200273 
     2880.0      4.253       .292                                 1068700200274 
     2894.2      3.953       .292                                 1068700200275 
     2908.5      3.880       .289                                 1068700200276 
     2922.9      4.751       .298                                 1068700200277 
     2937.5      4.895       .298                                 1068700200278 
     2952.1      5.172       .299                                 1068700200279 
     2966.8      5.172       .304                                 1068700200280 
     2981.7      6.035       .303                                 1068700200281 
     2996.7      6.524       .308                                 1068700200282 
     3011.8      6.836       .314                                 1068700200283 
     3027.0      8.132       .320                                 1068700200284 
     3042.3      8.787       .326                                 1068700200285 
     3057.7     10.153       .345                                 1068700200286 
     3073.3     10.589       .348                                 1068700200287 
     3088.9     12.475       .371                                 1068700200288 
     3104.7     13.697       .389                                 1068700200289 
     3115.3     17.191      2.188                                 1068700200290 
     3120.6     18.138      2.228                                 1068700200291 
     3125.9     15.277      2.223                                 1068700200292 
     3131.3     21.279      2.258                                 1068700200293 
     3136.6     19.761      2.281                                 1068700200294 
     3142.0     22.849      2.294                                 1068700200295 
     3147.4     21.904      2.312                                 1068700200296 
     3152.8     22.669      2.322                                 1068700200297 
     3158.2     26.030      2.359                                 1068700200298 
     3163.6     24.833      2.414                                 1068700200299 
     3169.1     27.181      2.400                                 1068700200300 
     3174.5     33.708      2.435                                 1068700200301 
     3180.0     33.563      2.459                                 1068700200302 
     3185.5     33.844      2.530                                 1068700200303 
     3191.0     40.067      2.625                                 1068700200304 
     3196.5     40.978      2.551                                 1068700200305 
     3202.0     38.859      2.650                                 1068700200306 
     3207.6     54.092      2.825                                 1068700200307 
     3213.1     51.715      2.893                                 1068700200308 
     3218.7     64.742      3.170                                 1068700200309 
     3224.3     78.397      7.913                                 1068700200310 
     3229.9     85.871      7.960                                 1068700200311 
     3235.5     95.648      8.210                                 1068700200312 
     3241.1    111.531      8.351                                 1068700200313 
     3246.8    104.844      8.561                                 1068700200314 
     3252.4    138.612      9.397                                 1068700200315 
     3258.1    159.886     10.082                                 1068700200316 
     3263.8    160.981     10.310                                 1068700200317 
     3269.5    204.325     11.723                                 1068700200318 
     3275.2    220.492     12.855                                 1068700200319 
     3280.9    230.734     13.498                                 1068700200320 
     3286.7    257.448     15.388                                 1068700200321 
     3292.4    299.286     17.780                                 1068700200322 
     3298.2    299.485     18.519                                 1068700200323 
     3304.0    286.494     17.169                                 1068700200324 
     3309.8    297.287     18.180                                 1068700200325 
     3315.6    279.328     16.435                                 1068700200326 
     3321.5    288.496     16.641                                 1068700200327 
     3327.3    238.796     13.886                                 1068700200328 
     3333.2    216.280     12.705                                 1068700200329 
     3339.1    194.250     11.765                                 1068700200330 
     3345.0    138.991      9.126                                 1068700200331 
     3350.9    134.391      8.526                                 1068700200332 
     3356.8    109.916      5.742                                 1068700200333 
     3362.8    100.336      5.021                                 1068700200334 
     3368.7     89.565      4.319                                 1068700200335 
     3374.7     85.400      4.109                                 1068700200336 
     3380.7     77.880      3.704                                 1068700200337 
     3386.7     68.329      3.349                                 1068700200338 
     3392.7     64.008      3.116                                 1068700200339 
     3398.8     57.728      2.951                                 1068700200340 
     3404.8     47.321      2.775                                 1068700200341 
     3410.9     51.823      2.758                                 1068700200342 
     3417.0     47.682      2.654                                 1068700200343 
     3423.1     40.283      2.586                                 1068700200344 
     3429.2     37.128      2.489                                 1068700200345 
     3435.4     36.737      2.479                                 1068700200346 
     3441.5     34.876      2.402                                 1068700200347 
     3447.7     34.953      2.452                                 1068700200348 
     3453.9     38.979      2.430                                 1068700200349 
     3460.1     31.705      2.362                                 1068700200350 
     3466.3     31.911      2.398                                 1068700200351 
     3472.6     27.116      2.330                                 1068700200352 
     3478.8     27.946      2.306                                 1068700200353 
     3485.1     24.816      1.328                                 1068700200354 
     3504.0     23.031      1.298                                 1068700200355 
     3523.1     21.481      1.295                                 1068700200356 
     3542.3     18.983      1.277                                 1068700200357 
     3561.7     19.902      1.279                                 1068700200358 
     3581.3     20.317      1.261                                 1068700200359 
     3601.0     21.593      1.275                                 1068700200360 
     3620.9     18.017      1.259                                 1068700200361 
     3640.9     17.102      1.260                                 1068700200362 
     3661.1     20.581      1.259                                 1068700200363 
     3681.5     20.975      1.261                                 1068700200364 
     3702.1     23.597      1.274                                 1068700200365 
     3722.8     21.722      1.271                                 1068700200366 
     3743.7     21.146      1.270                                 1068700200367 
     3764.7     27.006      1.298                                 1068700200368 
     3786.0     28.024      1.309                                 1068700200369 
     3807.4     26.721      1.314                                 1068700200370 
     3829.0     28.581      1.333                                 1068700200371 
     3850.8     32.233      1.359                                 1068700200372 
     3872.8     33.985      1.365                                 1068700200373 
     3895.0     35.603      1.400                                 1068700200374 
     3917.4     41.851      1.462                                 1068700200375 
     3939.9     45.215      1.506                                 1068700200376 
     3962.7     50.065      1.551                                 1068700200377 
     3985.6     54.284      1.626                                 1068700200378 
     4001.0     82.465      7.398                                 1068700200379 
     4008.8     85.322      7.440                                 1068700200380 
     4016.5     81.021      7.519                                 1068700200381 
     4024.3     71.844      7.337                                 1068700200382 
     4032.1     78.497      7.601                                 1068700200383 
     4040.0     86.806      7.604                                 1068700200384 
     4047.8     95.048      7.626                                 1068700200385 
     4055.7     93.635      7.889                                 1068700200386 
     4063.6     93.557      7.985                                 1068700200387 
     4071.5     93.385      7.826                                 1068700200388 
     4079.5     90.011      7.919                                 1068700200389 
     4087.4    116.844      8.403                                 1068700200390 
     4095.4    115.594      8.337                                 1068700200391 
     4103.4    105.328      8.101                                 1068700200392 
     4111.5    117.386      8.520                                 1068700200393 
     4119.5    135.213      8.663                                 1068700200394 
     4127.6    128.783      8.685                                 1068700200395 
     4135.7    133.020      8.833                                 1068700200396 
     4143.9    152.655      9.512                                 1068700200397 
     4152.0    150.021      9.330                                 1068700200398 
     4160.2    164.603      9.697                                 1068700200399 
     4168.4    182.451     10.438                                 1068700200400 
     4176.6    195.992     10.727                                 1068700200401 
     4184.9    178.231     10.535                                 1068700200402 
     4193.2    208.824     11.425                                 1068700200403 
     4201.5    208.835     11.693                                 1068700200404 
     4209.8    212.024     11.905                                 1068700200405 
     4218.2    226.340     12.616                                 1068700200406 
     4226.5    228.021     12.620                                 1068700200407 
     4234.9    244.509     13.395                                 1068700200408 
     4243.4    252.520     13.940                                 1068700200409 
     4251.8    291.113     16.373                                 1068700200410 
     4260.3    275.196     15.903                                 1068700200411 
     4268.8    298.317     17.312                                 1068700200412 
     4277.3    308.122     18.049                                 1068700200413 
     4285.9    311.902     18.471                                 1068700200414 
     4294.5    318.851     19.311                                 1068700200415 
     4303.1    307.650     18.373                                 1068700200416 
     4311.7    354.100     23.114                                 1068700200417 
     4320.4    354.898     22.733                                 1068700200418 
     4329.1    358.603     24.026                                 1068700200419 
     4337.8    356.591     23.028                                 1068700200420 
     4346.5    341.889     21.430                                 1068700200421 
     4355.3    351.023     22.623                                 1068700200422 
     4364.1    310.546     18.653                                 1068700200423 
     4372.9    309.299     18.436                                 1068700200424 
     4381.7    335.590     20.592                                 1068700200425 
     4390.6    313.606     18.410                                 1068700200426 
     4399.5    304.237     17.855                                 1068700200427 
     4408.4    275.581     15.468                                 1068700200428 
     4417.4    307.978     17.896                                 1068700200429 
     4426.4    269.107     15.208                                 1068700200430 
     4435.4    254.455     13.958                                 1068700200431 
     4444.4    275.777     15.086                                 1068700200432 
     4453.5    255.458     13.955                                 1068700200433 
     4462.5    238.212     12.931                                 1068700200434 
     4471.7    200.747     11.311                                 1068700200435 
     4480.8    213.856     11.775                                 1068700200436 
     4490.0    212.606     11.747                                 1068700200437 
     4499.2    185.279     10.442                                 1068700200438 
     4508.4    178.028     10.094                                 1068700200439 
     4517.7    180.274     10.145                                 1068700200440 
     4527.0    160.134      9.535                                 1068700200441 
     4536.3    159.454      9.410                                 1068700200442 
     4545.6    151.262      9.137                                 1068700200443 
     4555.0    139.935      8.938                                 1068700200444 
     4564.4    140.779      8.863                                 1068700200445 
     4573.8    133.497      8.475                                 1068700200446 
     4583.3    124.844      8.341                                 1068700200447 
     4592.8    114.233      8.151                                 1068700200448 
     4602.3    116.654      8.281                                 1068700200449 
     4611.8    113.164      7.936                                 1068700200450 
     4621.4    113.305      7.836                                 1068700200451 
     4631.0     93.902      7.530                                 1068700200452 
     4640.7     97.363      7.526                                 1068700200453 
     4650.3     90.150      7.508                                 1068700200454 
     4660.0     67.731      7.085                                 1068700200455 
     4669.8     91.724      7.411                                 1068700200456 
     4679.5     94.372      7.488                                 1068700200457 
     4689.3     77.858      7.195                                 1068700200458 
     4699.1     72.023      7.111                                 1068700200459 
     4709.0     78.948      7.159                                 1068700200460 
     4718.9     63.210      6.918                                 1068700200461 
     4728.8     55.492      6.846                                 1068700200462 
     4748.7     56.273      1.575                                 1068700200463 
     4778.8     50.172      1.487                                 1068700200464 
     4809.2     46.239      1.411                                 1068700200465 
     4839.9     39.984      1.387                                 1068700200466 
     4870.9     36.331      1.339                                 1068700200467 
     4902.2     33.928      1.300                                 1068700200468 
     4933.8     31.095      1.277                                 1068700200469 
     4965.7     28.787      1.247                                 1068700200470 
     4997.9     24.272      1.242                                 1068700200471 
     5030.5     23.080      1.212                                 1068700200472 
     5063.3     21.467      1.205                                 1068700200473 
     5096.5     21.444      1.181                                 1068700200474 
     5130.0     19.671      1.180                                 1068700200475 
     5163.8     17.448      1.162                                 1068700200476 
     5198.0     17.203      1.152                                 1068700200477 
     5232.5     15.174       .371                                 1068700200478 
     5267.3     15.150       .365                                 1068700200479 
     5302.5     14.279       .343                                 1068700200480 
     5338.1     13.230       .337                                 1068700200481 
     5374.0     12.526       .325                                 1068700200482 
     5410.2     11.769       .320                                 1068700200483 
     5446.9     11.026       .310                                 1068700200484 
     5483.9     11.254       .309                                 1068700200485 
     5521.3      9.521       .297                                 1068700200486 
     5559.1      8.881       .290                                 1068700200487 
     5597.2      8.793       .288                                 1068700200488 
     5635.8      8.048       .286                                 1068700200489 
     5674.8      7.872       .282                                 1068700200490 
     5714.1      7.951       .277                                 1068700200491 
     5753.9      7.168       .276                                 1068700200492 
     5794.1      7.059       .275                                 1068700200493 
     5834.7      7.311       .275                                 1068700200494 
     5875.8      6.608       .279                                 1068700200495 
     5917.2      6.399       .279                                 1068700200496 
     5959.2      6.434       .270                                 1068700200497 
     6001.5      6.181       .269                                 1068700200498 
     6044.3      5.984       .265                                 1068700200499 
     6087.6      6.242       .262                                 1068700200500 
     6131.4      6.197       .268                                 1068700200501 
     6175.6      6.890       .264                                 1068700200502 
     6220.3      6.935       .269                                 1068700200503 
     6265.5      7.168       .272                                 1068700200504 
     6311.2      8.026       .275                                 1068700200505 
     6341.9      8.009       .484                                 1068700200506 
     6357.3     10.620       .502                                 1068700200507 
     6372.9      9.079       .508                                 1068700200508 
     6388.4      9.841       .515                                 1068700200509 
     6404.0     11.542       .536                                 1068700200510 
     6419.7     11.174       .542                                 1068700200511 
     6435.5     13.484       .562                                 1068700200512 
     6451.2     14.062       .578                                 1068700200513 
     6467.1     15.433      1.915                                 1068700200514 
     6483.0     19.671      1.966                                 1068700200515 
     6499.0     21.108      1.984                                 1068700200516 
     6515.0     22.183      2.011                                 1068700200517 
     6531.1     26.828      2.024                                 1068700200518 
     6547.2     31.090      2.064                                 1068700200519 
     6563.5     35.932      2.174                                 1068700200520 
     6579.7     44.085      2.316                                 1068700200521 
     6596.0     46.223      2.380                                 1068700200522 
     6612.4     65.112      6.619                                 1068700200523 
     6628.9     98.164      7.129                                 1068700200524 
     6645.4     95.241      7.209                                 1068700200525 
     6662.0    113.615      7.404                                 1068700200526 
     6678.6    134.936      8.071                                 1068700200527 
     6695.3    145.105      8.228                                 1068700200528 
     6712.1    141.500      8.006                                 1068700200529 
     6728.9    125.007      7.601                                 1068700200530 
     6745.8    104.652      7.198                                 1068700200531 
     6762.7    102.926      7.083                                 1068700200532 
     6779.7     73.740      6.647                                 1068700200533 
     6796.8     50.062      2.384                                 1068700200534 
     6814.0     39.450      2.226                                 1068700200535 
     6831.2     32.446      2.067                                 1068700200536 
     6848.4     32.103      2.015                                 1068700200537 
     6865.8     22.575      1.953                                 1068700200538 
     6883.2     15.586      1.931                                 1068700200539 
     6900.7     15.546      1.882                                 1068700200540 
     6918.2     13.023      1.837                                 1068700200541 
     6935.8     14.298      1.825                                 1068700200542 
     6953.5      8.680       .489                                 1068700200543 
     6971.2      8.236       .466                                 1068700200544 
     6989.0      7.945       .456                                 1068700200545 
     7006.9      6.187       .449                                 1068700200546 
     7024.9      5.497       .432                                 1068700200547 
     7042.9      4.894       .434                                 1068700200548 
     7060.9      4.636       .427                                 1068700200549 
     7079.1      4.664       .413                                 1068700200550 
     7097.3      4.469       .421                                 1068700200551 
     7115.6      3.541       .418                                 1068700200552 
     7134.0      4.096       .405                                 1068700200553 
     7152.4      3.946       .410                                 1068700200554 
     7170.9      3.118       .410                                 1068700200555 
     7189.5      2.717       .406                                 1068700200556 
     7208.2      2.191       .408                                 1068700200557 
     7226.9      2.585       .393                                 1068700200558 
     7245.7      2.317       .404                                 1068700200559 
     7264.6      2.349       .398                                 1068700200560 
     7283.5      2.627       .394                                 1068700200561 
     7302.5      2.471       .388                                 1068700200562 
     7321.6      2.015       .390                                 1068700200563 
     7340.8      2.033       .387                                 1068700200564 
     7360.0      3.006       .384                                 1068700200565 
     7379.3      3.243       .379                                 1068700200566 
     7398.7      1.729       .383                                 1068700200567 
     7418.2      1.709       .380                                 1068700200568 
     7437.8      3.139       .375                                 1068700200569 
     7457.4      3.362       .374                                 1068700200570 
     7477.1      2.678       .380                                 1068700200571 
     7496.9      2.231       .385                                 1068700200572 
     7516.7      1.917       .395                                 1068700200573 
     7536.7      2.424       .388                                 1068700200574 
     7556.7      1.936       .402                                 1068700200575 
     7576.8      2.025       .396                                 1068700200576 
     7597.0      2.037       .405                                 1068700200577 
     7617.2      2.332       .399                                 1068700200578 
     7637.6      2.950       .405                                 1068700200579 
     7658.0      2.655       .412                                 1068700200580 
     7678.5      3.179       .414                                 1068700200581 
     7699.1      4.550       .416                                 1068700200582 
     7719.8      4.942       .422                                 1068700200583 
     7740.5      5.836       .435                                 1068700200584 
     7761.4      6.694       .450                                 1068700200585 
     7782.3      8.261       .466                                 1068700200586 
     7803.3     10.998       .494                                 1068700200587 
     7824.4     12.190       .526                                 1068700200588 
     7845.6     16.510       .628                                 1068700200589 
     7866.8     20.592       .723                                 1068700200590 
     7888.2     30.090      2.036                                 1068700200591 
     7909.6     39.285      2.176                                 1068700200592 
     7931.1     50.194      2.350                                 1068700200593 
     7952.7     75.118      6.621                                 1068700200594 
     7974.4     95.073      6.921                                 1068700200595 
     7996.2    119.431      7.382                                 1068700200596 
     8018.1    130.708      7.793                                 1068700200597 
     8040.1    141.223      8.041                                 1068700200598 
     8062.1    125.117      7.531                                 1068700200599 
     8084.3    126.070      7.481                                 1068700200600 
     8106.5    106.233      7.077                                 1068700200601 
     8128.9     92.600      6.641                                 1068700200602 
     8151.3     65.219      6.359                                 1068700200603 
     8173.8     49.600      2.345                                 1068700200604 
     8196.4     39.657      2.169                                 1068700200605 
     8219.1     34.691      2.086                                 1068700200606 
     8241.9     29.717      1.999                                 1068700200607 
     8264.8     25.133      1.973                                 1068700200608 
     8287.8     23.196      1.920                                 1068700200609 
     8310.9     23.488      1.889                                 1068700200610 
     8334.1     20.933      1.880                                 1068700200611 
     8357.4     16.963      1.861                                 1068700200612 
     8380.8     18.551      1.846                                 1068700200613 
     8404.2     15.959      1.836                                 1068700200614 
     8427.8     13.644       .550                                 1068700200615 
     8451.5     12.316       .531                                 1068700200616 
     8475.3     12.485       .536                                 1068700200617 
     8499.2     13.178       .525                                 1068700200618 
     8523.1     11.623       .521                                 1068700200619 
     8547.2     12.886       .526                                 1068700200620 
     8571.4     11.480       .508                                 1068700200621 
     8595.7     12.909       .533                                 1068700200622 
     8620.1     13.545       .526                                 1068700200623 
     8644.6     13.518       .550                                 1068700200624 
     8669.2     14.525      1.814                                 1068700200625 
     8693.9     17.276      1.825                                 1068700200626 
     8718.7     16.039      1.823                                 1068700200627 
     8743.6     21.738      1.825                                 1068700200628 
     8768.6     21.930      1.887                                 1068700200629 
     8793.7     23.177      1.893                                 1068700200630 
     8819.0     29.230      1.927                                 1068700200631 
     8844.3     32.416      1.995                                 1068700200632 
     8869.8     35.067      2.063                                 1068700200633 
     8895.3     41.864      2.121                                 1068700200634 
     8921.0     49.479      2.261                                 1068700200635 
     8946.8     55.530      2.456                                 1068700200636 
     8972.7     65.500      2.692                                 1068700200637 
     8998.7     77.826      3.081                                 1068700200638 
     9024.8     96.143      3.818                                 1068700200639 
     9051.1    105.263      4.425                                 1068700200640 
     9077.4    117.280      5.202                                 1068700200641 
     9103.9    127.366      5.902                                 1068700200642 
     9130.5    126.647      5.878                                 1068700200643 
     9157.2    117.831      5.247                                 1068700200644 
     9184.0     99.213      4.180                                 1068700200645 
     9210.9     90.857      3.705                                 1068700200646 
     9238.0     81.266      3.173                                 1068700200647 
     9265.1     66.975      2.775                                 1068700200648 
     9292.4     62.245      2.537                                 1068700200649 
     9319.8     51.838      2.360                                 1068700200650 
     9347.4     47.265      2.201                                 1068700200651 
     9375.0     35.483      1.911                                 1068700200652 
     9402.8     31.781      1.495                                 1068700200653 
     9430.7     29.610      1.230                                 1068700200654 
     9458.8     26.279      1.009                                 1068700200655 
     9486.9     22.339       .822                                 1068700200656 
     9515.2     22.479       .803                                 1068700200657 
     9543.6     20.401       .707                                 1068700200658 
     9572.1     17.984       .661                                 1068700200659 
     9600.8     16.213       .592                                 1068700200660 
     9629.6     15.642       .593                                 1068700200661 
     9658.5     14.641       .548                                 1068700200662 
     9687.6     14.252       .560                                 1068700200663 
     9716.7     13.138       .517                                 1068700200664 
     9746.1     12.464       .514                                 1068700200665 
     9775.5     11.078       .494                                 1068700200666 
     9805.1     10.319       .474                                 1068700200667 
     9834.8     10.029       .468                                 1068700200668 
     9864.6      8.590       .461                                 1068700200669 
     9894.6      8.188       .454                                 1068700200670 
     9924.8      8.162       .442                                 1068700200671 
     9955.0      7.266       .433                                 1068700200672 
     9985.4      6.480       .438                                 1068700200673 
    10016.0      6.619       .420                                 1068700200674 
    10046.6      5.416       .424                                 1068700200675 
    10077.5      5.855       .417                                 1068700200676 
    10108.4      4.865       .415                                 1068700200677 
    10139.5      5.785       .407                                 1068700200678 
    10170.8      5.526       .402                                 1068700200679 
    10202.2      4.240       .399                                 1068700200680 
    10233.7      4.834       .400                                 1068700200681 
    10265.4      3.881       .399                                 1068700200682 
    10297.2      3.913       .400                                 1068700200683 
    10329.2      3.537       .397                                 1068700200684 
    10361.4      3.614       .391                                 1068700200685 
    10393.6      2.599       .393                                 1068700200686 
    10426.1      2.191       .396                                 1068700200687 
    10458.7      3.177       .384                                 1068700200688 
    10491.4      2.163       .391                                 1068700200689 
    10524.3      3.308       .391                                 1068700200690 
    10557.3      4.034       .399                                 1068700200691 
    10590.5      5.539       .411                                 1068700200692 
    10623.9      8.185       .443                                 1068700200693 
    10657.4      9.319       .466                                 1068700200694 
    10691.1     12.284       .502                                 1068700200695 
    10724.9     12.043       .499                                 1068700200696 
    10758.9      9.260       .474                                 1068700200697 
    10793.1      9.320       .453                                 1068700200698 
    10827.4      6.776       .423                                 1068700200699 
    10861.9      5.793       .409                                 1068700200700 
    10896.5      4.984       .405                                 1068700200701 
    10931.4      4.120       .401                                 1068700200702 
    10966.4      4.249       .401                                 1068700200703 
    11001.5      4.620       .409                                 1068700200704 
    11036.8      4.716       .410                                 1068700200705 
    11072.3      5.158       .405                                 1068700200706 
    11108.0      6.925       .408                                 1068700200707 
    11143.8      7.523       .427                                 1068700200708 
    11179.8      9.085       .459                                 1068700200709 
    11216.0     11.298       .477                                 1068700200710 
    11252.4     18.253      1.749                                 1068700200711 
    11288.9     21.799      1.742                                 1068700200712 
    11325.6     22.288      1.833                                 1068700200713 
    11362.5     31.608      1.952                                 1068700200714 
    11399.6     39.103      2.039                                 1068700200715 
    11436.9     50.225      2.239                                 1068700200716 
    11474.3     84.352      6.159                                 1068700200717 
    11511.9     95.043      6.450                                 1068700200718 
    11549.7     88.810      6.409                                 1068700200719 
    11587.7    125.232      6.853                                 1068700200720 
    11625.9    118.271      6.777                                 1068700200721 
    11664.3    114.915      6.676                                 1068700200722 
    11702.9     90.775      6.409                                 1068700200723 
    11741.6     83.086      6.162                                 1068700200724 
    11780.6     70.579      6.025                                 1068700200725 
    11819.7     49.400      2.165                                 1068700200726 
    11859.0     44.266      2.070                                 1068700200727 
    11898.6     34.179      1.912                                 1068700200728 
    11938.3     30.207      1.934                                 1068700200729 
    11978.3     29.954      1.873                                 1068700200730 
    12018.4     24.419      1.814                                 1068700200731 
    12058.7     22.717      1.783                                 1068700200732 
    12099.3     23.842      1.760                                 1068700200733 
    12140.0     21.258      1.733                                 1068700200734 
    12181.0     17.241      1.715                                 1068700200735 
    12222.1     14.290      1.726                                 1068700200736 
    12263.5     13.044      1.706                                 1068700200737 
    12305.1     14.254      1.682                                 1068700200738 
    12346.8     14.541       .505                                 1068700200739 
    12388.8     13.591       .488                                 1068700200740 
    12431.1     11.469       .471                                 1068700200741 
    12473.5     12.114       .454                                 1068700200742 
    12516.1     11.816       .457                                 1068700200743 
    12559.0     10.650       .455                                 1068700200744 
    12602.1     10.094       .451                                 1068700200745 
    12645.4      9.336       .441                                 1068700200746 
    12688.9      8.863       .428                                 1068700200747 
    12732.7      8.928       .436                                 1068700200748 
    12776.7      8.515       .427                                 1068700200749 
    12820.9      7.969       .419                                 1068700200750 
    12865.4      7.787       .420                                 1068700200751 
    12910.0      7.781       .419                                 1068700200752 
    12954.9      6.916       .411                                 1068700200753 
    13000.1      6.363       .412                                 1068700200754 
    13045.5      7.060       .416                                 1068700200755 
    13091.1      6.625       .410                                 1068700200756 
    13137.0      6.652       .406                                 1068700200757 
    13183.1      5.371       .405                                 1068700200758 
    13229.4      5.992       .407                                 1068700200759 
    13276.0      6.412       .404                                 1068700200760 
    13322.8      6.228       .405                                 1068700200761 
    13369.9      5.397       .402                                 1068700200762 
    13417.2      5.690       .407                                 1068700200763 
    13464.8      5.100       .406                                 1068700200764 
    13512.7      4.942       .404                                 1068700200765 
    13560.8      4.373       .403                                 1068700200766 
    13609.1      4.681       .395                                 1068700200767 
    13657.7      4.032       .391                                 1068700200768 
    13706.6      3.858       .389                                 1068700200769 
    13755.7      4.541       .383                                 1068700200770 
    13805.1      3.945       .385                                 1068700200771 
    13854.8      4.317       .386                                 1068700200772 
    13904.7      4.104       .383                                 1068700200773 
    13954.9      3.983       .384                                 1068700200774 
    14005.4      3.907       .386                                 1068700200775 
    14056.2      4.221       .386                                 1068700200776 
    14107.2      2.959       .382                                 1068700200777 
    14158.5      3.801       .377                                 1068700200778 
    14210.1      3.292       .378                                 1068700200779 
    14261.9      3.764       .374                                 1068700200780 
    14314.1      3.406       .374                                 1068700200781 
    14366.5      3.998       .377                                 1068700200782 
    14419.3      5.440       .388                                 1068700200783 
    14472.3      5.926       .395                                 1068700200784 
    14525.6      7.160       .402                                 1068700200785 
    14579.2      7.233       .405                                 1068700200786 
    14633.1      7.368       .419                                 1068700200787 
    14687.3      9.125       .430                                 1068700200788 
    14741.8     11.708       .455                                 1068700200789 
    14796.6     11.310       .455                                 1068700200790 
    14851.8     10.251       .437                                 1068700200791 
    14907.2      7.917       .413                                 1068700200792 
    14962.9      5.625       .386                                 1068700200793 
    15019.0      4.250       .380                                 1068700200794 
    15075.3      3.227       .377                                 1068700200795 
    15132.0      3.183       .365                                 1068700200796 
    15189.0      2.431       .367                                 1068700200797 
    15246.3      2.551       .366                                 1068700200798 
    15304.0      1.793       .365                                 1068700200799 
    15362.0      2.810       .368                                 1068700200800 
    15420.3      2.283       .373                                 1068700200801 
    15478.9      5.160       .380                                 1068700200802 
    15537.9      7.438       .412                                 1068700200803 
    15597.2     10.723       .438                                 1068700200804 
    15656.9     10.584       .450                                 1068700200805 
    15716.9      9.906       .440                                 1068700200806 
    15777.2      7.599       .416                                 1068700200807 
    15837.9      7.254       .402                                 1068700200808 
    15898.9      6.306       .391                                 1068700200809 
    15960.3      5.340       .380                                 1068700200810 
    16022.1      4.756       .379                                 1068700200811 
    16084.2      4.486       .374                                 1068700200812 
    16146.7      4.064       .374                                 1068700200813 
    16209.5      3.156       .377                                 1068700200814 
    16272.7      3.133       .370                                 1068700200815 
    16336.3      3.012       .374                                 1068700200816 
    16400.2      3.796       .364                                 1068700200817 
    16464.5      2.954       .372                                 1068700200818 
    16529.3      3.305       .373                                 1068700200819 
    16594.3      3.139       .367                                 1068700200820 
    16659.8      2.785       .373                                 1068700200821 
    16725.7      3.443       .375                                 1068700200822 
    16791.9      3.182       .371                                 1068700200823 
    16858.6      4.040       .361                                 1068700200824 
    16925.6      2.514       .368                                 1068700200825 
    16993.0      3.062       .363                                 1068700200826 
    17060.9      3.033       .368                                 1068700200827 
    17129.1      2.973       .358                                 1068700200828 
    17197.8      3.086       .359                                 1068700200829 
    17266.9      2.986       .363                                 1068700200830 
    17336.4      3.149       .361                                 1068700200831 
    17406.3      3.235       .362                                 1068700200832 
    17476.6      3.144       .360                                 1068700200833 
    17547.4      3.309       .360                                 1068700200834 
    17618.6      3.193       .367                                 1068700200835 
    17690.2      3.340       .364                                 1068700200836 
    17762.3      2.879       .366                                 1068700200837 
    17834.8      3.960       .362                                 1068700200838 
    17907.8      3.360       .361                                 1068700200839 
    17981.2      3.086       .365                                 1068700200840 
    18055.0      3.627       .359                                 1068700200841 
    18129.3      3.074       .363                                 1068700200842 
    18204.1      3.234       .364                                 1068700200843 
    18279.4      3.487       .365                                 1068700200844 
    18355.1      4.208       .369                                 1068700200845 
    18431.2      4.615       .365                                 1068700200846 
    18507.9      4.962       .377                                 1068700200847 
    18585.0      5.491       .375                                 1068700200848 
    18662.6      5.946       .384                                 1068700200849 
    18740.7      7.245       .399                                 1068700200850 
    18819.3      9.724       .411                                 1068700200851 
    18898.4     10.995       .438                                 1068700200852 
    18978.0     12.169       .454                                 1068700200853 
    19058.1      9.485       .419                                 1068700200854 
    19138.7      7.538       .390                                 1068700200855 
    19219.8      4.900       .366                                 1068700200856 
    19301.4      3.999       .359                                 1068700200857 
    19383.6      3.473       .351                                 1068700200858 
    19466.2      3.234       .356                                 1068700200859 
    19549.4      3.769       .364                                 1068700200860 
    19600.2      3.527       .225                                 1068700200861 
    19684.4      3.998       .302                                 1068700200862 
    19769.1      4.530       .427                                 1068700200863 
    19854.3      4.601       .522                                 1068700200864 
    19887.6      8.000       .398                                 1068700200865 
    19973.6     10.723       .426                                 1068700200866 
    20060.0     13.117       .456                                 1068700200867 
    20147.1     13.831       .488                                 1068700200868 
    20234.7     20.856      1.627                                 1068700200869 
    20322.9     23.841      1.659                                 1068700200870 
    20411.6     31.781      1.732                                 1068700200871 
    20501.0     44.967      1.877                                 1068700200872 
    20590.9     51.368      2.036                                 1068700200873 
    20681.4     60.552      2.213                                 1068700200874 
    20772.6     65.504      2.318                                 1068700200875 
    20864.3     55.737      2.162                                 1068700200876 
    20956.6     52.501      2.061                                 1068700200877 
    21049.6     48.299      2.004                                 1068700200878 
    21143.1     44.992      1.976                                 1068700200879 
    21237.3     36.254      1.894                                 1068700200880 
    21332.2     31.444      1.829                                 1068700200881 
    21427.6     26.745      1.734                                 1068700200882 
    21523.7     21.879      1.689                                 1068700200883 
    21620.5     17.485      1.631                                 1068700200884 
    21717.9     15.471       .500                                 1068700200885 
    21815.9     14.948       .478                                 1068700200886 
    21914.7     12.046       .443                                 1068700200887 
    22014.1     11.556       .425                                 1068700200888 
    22114.2      8.930       .395                                 1068700200889 
    22214.9      9.020       .399                                 1068700200890 
ENDDATA            874          0                                 1068700200891 
ENDSUBENT          890          0                                 1068700299999 
SUBENT        10687003   20080928                             13501068700300001 
BIB                  7         11                                 1068700300002 
REACTION   (21-SC-45(N,TOT),,SIG)                                 1068700300003 
FACILITY   (CHOPF,1USABNL) Fast chopper                           1068700300004 
SAMPLE     6 Sc samples with thicknesses 2.738 to 11.7 b/atom.    1068700300005 
           Impurities - H (0.49 atom%), O (0.18 atom%),           1068700300006 
                        Ta (0.014 atom%).                         1068700300007 
METHOD     (TOF) Time-of-flight. Flight path - 22 m.              1068700300008 
DETECTOR   (GELI) 10B slab viewed by coaxial Ge(Li) detector.     1068700300009 
CORRECTION Corrected for dead-time.                               1068700300010 
ERR-ANALYS (DATA-ERR) No informationon source of uncertainties.   1068700300011 
            Systematic uncertainty, including uncertainty in      1068700300012 
            relative normalization estimated to be ~4%.           1068700300013 
ENDBIB              11          0                                 1068700300014 
NOCOMMON             0          0                                 1068700300015 
DATA                 3         41                                 1068700300016 
EN         DATA       DATA-ERR                                    1068700300017 
EV         B          B                                           1068700300018 
  5.2       24.7       1.1                                        1068700300019 
  5.4       25.2       1.2                                        1068700300020 
  5.6       24.7       1.1                                        1068700300021 
  5.9       24.5       1.1                                        1068700300022 
  6.2       24.3       1.1                                        1068700300023 
  6.5       24.1       1.1                                        1068700300024 
  6.8       24.1       1.1                                        1068700300025 
  7.2       24.8       1.1                                        1068700300026 
  7.5       23.8       1.1                                        1068700300027 
  7.9       23.9       1.1                                        1068700300028 
  8.4       24.5       1.1                                        1068700300029 
  8.9       24.5       1.1                                        1068700300030 
  9.4       24.1       1.0                                        1068700300031 
 10.0       24.2       1.0                                        1068700300032 
 10.6       23.7       1.0                                        1068700300033 
 11.3       23.5       1.0                                        1068700300034 
 12.0       24.2       1.0                                        1068700300035 
 12.9       23.3       1.0                                        1068700300036 
 13.8       22.9       1.0                                        1068700300037 
 14.8       23.4       1.0                                        1068700300038 
 15.9       23.5       1.0                                        1068700300039 
 17.2       23.0       1.0                                        1068700300040 
 18.7       23.6       1.0                                        1068700300041 
 20.3       23.5       1.0                                        1068700300042 
 22.2       23.2       1.0                                        1068700300043 
 24.3       23.0       1.0                                        1068700300044 
 26.7       22.1       0.9                                        1068700300045 
 29.6       20.9       0.9                                        1068700300046 
 32.9       20.3       0.9                                        1068700300047 
 36.8       20.1       0.9                                        1068700300048 
 41.4       20.3       0.9                                        1068700300049 
 47.0       19.7       0.8                                        1068700300050 
 53.7       19.6       0.8                                        1068700300051 
 62.1       18.6       0.8                                        1068700300052 
 72.5       17.8       0.7                                        1068700300053 
 85.8       17.0       0.7                                        1068700300054 
103.2       15.4       0.7                                        1068700300055 
126.4       14.2       0.7                                        1068700300056 
158.5       12.7       0.6                                        1068700300057 
204.5       10.85      0.5                                        1068700300058 
273.8        8.77      0.4                                        1068700300059 
ENDDATA             43          0                                 1068700300060 
ENDSUBENT           59          0                                 1068700399999 
SUBENT        10687004   20080928                             13501068700400001 
BIB                  4          7                                 1068700400002 
REACTION  1(21-SC-45(N,0),,EN)                                    1068700400003 
          2(21-SC-45(N,EL),,WID/RED)                              1068700400004 
          3(21-SC-45(N,0),,J)                                     1068700400005 
ANALYSIS   (RFN) R-function analysis. Assumed negative incoherent 1068700400006 
            scattering amplitude                                  1068700400007 
ERR-ANALYS (DATA-ERR) No informationon source of uncertainties.   1068700400008 
STATUS     (TABLE) Data taken from Table II in reference.         1068700400009 
ENDBIB               7          0                                 1068700400010 
COMMON               1          3                                 1068700400011 
MOMENTUM L                                                        1068700400012 
NO-DIM                                                            1068700400013 
 0.                                                               1068700400014 
ENDCOMMON            3          0                                 1068700400015 
DATA                 5          2                                 1068700400016 
DATA      1DATA-ERR  1DATA      2DATA-ERR  2DATA      3           1068700400017 
EV         EV         EV         EV         NO-DIM                1068700400018 
-500.        50.       4.0        0.5        3.                   1068700400019 
-220.        40.       0.67       0.10       4.                   1068700400020 
ENDDATA              4          0                                 1068700400021 
ENDSUBENT           20          0                                 1068700499999 
SUBENT        10687005   20080928                             13501068700500001 
BIB                  4          6                                 1068700500002 
REACTION  1(21-SC-45(N,0),,EN)                                    1068700500003 
          2(21-SC-45(N,EL),,WID)                                  1068700500004 
          3(21-SC-45(N,0),,J)                                     1068700500005 
ANALYSIS   (RFN) R-function analysis.                             1068700500006 
ERR-ANALYS (DATA-ERR) No informationon source of uncertainties.   1068700500007 
STATUS     (TABLE) Data taken from Table II in reference.         1068700500008 
ENDBIB               6          0                                 1068700500009 
COMMON               2          3                                 1068700500010 
MOMENTUM L ASSUM                                                  1068700500011 
NO-DIM     EV                                                     1068700500012 
 0.         0.5                                                   1068700500013 
ENDCOMMON            3          0                                 1068700500014 
DATA                 5         16                                 1068700500015 
DATA      1DATA-ERR  1DATA      2DATA-ERR  2DATA      3           1068700500016 
EV         EV         EV         EV         NO-DIM                1068700500017 
 3295.       12.        75.         5.       3.                   1068700500018 
 4330.       18.       340.        20.       4.                   1068700500019 
 6684.       20.       130.        14.       3.                   1068700500020 
 8023.       25.       145.        15.       4.                   1068700500021 
 9092.       30.       300.        20.       3.                   1068700500022 
10625.       35.        10.         3.       3.                   1068700500023 
10735.       35.         6.         2.       4.                   1068700500024 
11575.       50.       290.        20.       4.                   1068700500025 
14525.       60.        20.         4.       3.                   1068700500026 
14740.       60.        26.         5.       4.                   1068700500027 
15560.       60.        28.         5.       4.                   1068700500028 
15850.       60.         5.         2.       3.                   1068700500029 
18580.       80.        32.         6.       3.                   1068700500030 
18870.       80.        62.        10.       4.                   1068700500031 
20500.       90.        80.        14.       4.                   1068700500032 
20780.      100.       710.        60.       3.                   1068700500033 
ENDDATA             18          0                                 1068700500034 
ENDSUBENT           33          0                                 1068700599999 
SUBENT        10687006   20080928                             13501068700600001 
BIB                  5          6                                 1068700600002 
REACTION  1(21-SC-45(N,0),,EN)                                    1068700600003 
          2(21-SC-45(N,EL),,WID,,G)                               1068700600004 
ANALYSIS   (RFN) R-function analysis                              1068700600005 
ASSUMED    (ASSUM,21-SC-45(N,G),,WID)                             1068700600006 
ERR-ANALYS (DATA-ERR) No informationon source of uncertainties.   1068700600007 
STATUS     (TABLE) Data taken from Table III in reference.        1068700600008 
ENDBIB               6          0                                 1068700600009 
COMMON               2          3                                 1068700600010 
MOMENTUM L ASSUM                                                  1068700600011 
NO-DIM     EV                                                     1068700600012 
 1.         0.5                                                   1068700600013 
ENDCOMMON            3          0                                 1068700600014 
DATA                 4          5                                 1068700600015 
DATA      1DATA-ERR  1DATA      2DATA-ERR  2                      1068700600016 
EV         EV         EV         EV                               1068700600017 
  460.6      0.4       0.0022     0.0003                          1068700600018 
 1060.4      1.0       0.0050     0.0007                          1068700600019 
 7377.      25.        0.4        0.2                             1068700600020 
 7458.      25.        0.4        0.2                             1068700600021 
 7548.      25.        0.25       0.15                            1068700600022 
ENDDATA              7          0                                 1068700600023 
ENDSUBENT           22          0                                 1068700699999 
ENDENTRY             6          0                                 1068799999999 
