ENTRY            11409   20110914                             13771140900000001 
SUBENT        11409001   20110914                             13771140900100001 
BIB                 10         21                                 1140900100002 
INSTITUTE  (1USATEX)                                              1140900100003 
REFERENCE  (J,PR,117,514,1960)                                    1140900100004 
AUTHOR     (D.M.Smith,N.A.Bostrom,E.L.Hudspeth)                   1140900100005 
TITLE      Excitation study of F-19(n,alpha)N-16 with a BaF2      1140900100006 
           crystal.                                               1140900100007 
FACILITY   (VDG,1USATEX)                                          1140900100008 
INC-SOURCE (D-D) The deuterium gas target was contained at about  1140900100009 
           25-cm pressure in a cell of depth 2.23 cm; deuterons   1140900100010 
           passed into the cell through a 0.025-mil nickel foil.  1140900100011 
SAMPLE     BaF2 crystal as a target for neutron bombardment and   1140900100012 
           as a detector of the induced N-16 activity.            1140900100013 
METHOD     (ACTIV) The neutron activation of F-19 in the BaF2     1140900100014 
           crystal was measured by following the delayed activity 1140900100015 
           of the residual N-16.                                  1140900100016 
DETECTOR   (BAF2)                                                 1140900100017 
           (NAICR)                                                1140900100018 
HISTORY    (19761016T) Translated from SCISRS                     1140900100019 
           (19820813A) converted to REACTION formalism            1140900100020 
           (20110914A) SD:Updated to new date formats,lower case. 1140900100021 
                corrected according to last EXFOR rules and Dict. 1140900100022 
                BIB updated.                                      1140900100023 
ENDBIB              21          0                                 1140900100024 
NOCOMMON             0          0                                 1140900100025 
ENDSUBENT           24          0                                 1140900199999 
SUBENT        11409002   20110914                             13771140900200001 
BIB                  3          3                                 1140900200002 
REACTION   (9-F-19(N,0),,EN)                                      1140900200003 
FLAG       (1.) Unresolved resonance.                             1140900200004 
STATUS     (TABLE) Tbl.2 from PR,117,514,1960                     1140900200005 
ENDBIB               3          0                                 1140900200006 
NOCOMMON             0          0                                 1140900200007 
DATA                 3          8                                 1140900200008 
DATA       DATA-ERR   FLAG                                        1140900200009 
MEV        MEV        NO-DIM                                      1140900200010 
 3.75       0.05                                                  1140900200011 
 4.08       0.05                                                  1140900200012 
 4.36       0.05                                                  1140900200013 
 4.52                  1.                                         1140900200014 
 4.79       0.05                                                  1140900200015 
 5.15       0.05                                                  1140900200016 
 5.40                  1.                                         1140900200017 
 5.90                  1.                                         1140900200018 
ENDDATA             10          0                                 1140900200019 
ENDSUBENT           18          0                                 1140900299999 
SUBENT        11409003   20110914                             13771140900300001 
BIB                  4         10                                 1140900300002 
REACTION   (9-F-19(N,A)7-N-16,,SIG)                               1140900300003 
ANALYSIS   The relative curve was normalized to an average of     1140900300004 
           three absolute measurements, performed at 4.48 MeV. Two1140900300005 
           of these determinations were made with the cylindrical 1140900300006 
           barium fluoride crystal at target-crystal distances of 1140900300007 
           3.0 inches and 5.0 inches. The third was made with an  1140900300008 
           irregularly shaped barium fluoride crystal at a        1140900300009 
           distance of about five inches.                         1140900300010 
ERR-ANALYS (DATA-ERR) Estimated absolute error tabulated.         1140900300011 
STATUS     (SCSRS)                                                1140900300012 
ENDBIB              10          0                                 1140900300013 
COMMON               3          3                                 1140900300014 
EN-NRM     EN-RSL     DATA-ERR                                    1140900300015 
MEV        KEV        PER-CENT                                    1140900300016 
 4.48        35.        15.                                       1140900300017 
ENDCOMMON            3          0                                 1140900300018 
DATA                 2         91                                 1140900300019 
EN         DATA                                                   1140900300020 
MEV        MB                                                     1140900300021 
 3.868       22.2                                                 1140900300022 
 3.893       25.9                                                 1140900300023 
 3.920       27.4                                                 1140900300024 
 3.945       31.7                                                 1140900300025 
 3.971       33.6                                                 1140900300026 
 3.996       37.3                                                 1140900300027 
 4.022       44.7                                                 1140900300028 
 4.048       50.3                                                 1140900300029 
 4.072       51.3                                                 1140900300030 
 4.096       53.9                                                 1140900300031 
 4.121       47.1                                                 1140900300032 
 4.145       48.0                                                 1140900300033 
 4.170       55.0                                                 1140900300034 
 4.195       70.5                                                 1140900300035 
 4.220       80.7                                                 1140900300036 
 4.244       94.0                                                 1140900300037 
 4.268       98.7                                                 1140900300038 
 4.292      103.                                                  1140900300039 
 4.317      107.                                                  1140900300040 
 4.339      117.                                                  1140900300041 
 4.364      118.                                                  1140900300042 
 4.388      113.                                                  1140900300043 
 4.412       96.                                                  1140900300044 
 4.436       89.4                                                 1140900300045 
 4.482       87.0                                                 1140900300046 
 4.506       85.7                                                 1140900300047 
 4.529       85.7                                                 1140900300048 
 4.552       80.1                                                 1140900300049 
 4.574       77.7                                                 1140900300050 
 4.598       79.7                                                 1140900300051 
 4.620       79.4                                                 1140900300052 
 4.643       78.2                                                 1140900300053 
 4.665       81.0                                                 1140900300054 
 4.689       88.5                                                 1140900300055 
 4.710       94.5                                                 1140900300056 
 4.733      114.                                                  1140900300057 
 4.755      123.                                                  1140900300058 
 4.778      125.                                                  1140900300059 
 4.789      127.                                                  1140900300060 
 4.810      124.                                                  1140900300061 
 4.833      115.                                                  1140900300062 
 4.856      115.                                                  1140900300063 
 4.878      114.                                                  1140900300064 
 4.900      112.                                                  1140900300065 
 4.923      103.                                                  1140900300066 
 4.945       93.1                                                 1140900300067 
 4.967       91.5                                                 1140900300068 
 4.990       91.9                                                 1140900300069 
 5.020       90.7                                                 1140900300070 
 5.035       90.0                                                 1140900300071 
 5.058       94.4                                                 1140900300072 
 5.076       97.5                                                 1140900300073 
 5.098      107.                                                  1140900300074 
 5.121      114.                                                  1140900300075 
 5.144      116.                                                  1140900300076 
 5.165      113.                                                  1140900300077 
 5.187      113.                                                  1140900300078 
 5.207       99.8                                                 1140900300079 
 5.229      101.                                                  1140900300080 
 5.250      108.                                                  1140900300081 
 5.272      117.                                                  1140900300082 
 5.294      126.                                                  1140900300083 
 5.316      132.                                                  1140900300084 
 5.336      142.                                                  1140900300085 
 5.357      148.                                                  1140900300086 
 5.380      150.                                                  1140900300087 
 5.400      155.                                                  1140900300088 
 5.423      152.                                                  1140900300089 
 5.443      154.                                                  1140900300090 
 5.464      155.                                                  1140900300091 
 5.486      160.                                                  1140900300092 
 5.509      171.                                                  1140900300093 
 5.528      178.                                                  1140900300094 
 5.551      186.                                                  1140900300095 
 5.571      184.                                                  1140900300096 
 5.592      186.                                                  1140900300097 
 5.614      197.                                                  1140900300098 
 5.636      197.                                                  1140900300099 
 5.660      197.                                                  1140900300100 
 5.702      203.                                                  1140900300101 
 5.742      204.                                                  1140900300102 
 5.785      203.                                                  1140900300103 
 5.827      218.                                                  1140900300104 
 5.869      209.                                                  1140900300105 
 5.910      195.                                                  1140900300106 
 5.950      171.                                                  1140900300107 
 5.992      188.                                                  1140900300108 
 6.033      215.                                                  1140900300109 
 6.074      204.                                                  1140900300110 
 6.115      220.                                                  1140900300111 
 6.156      201.                                                  1140900300112 
ENDDATA             93          0                                 1140900300113 
ENDSUBENT          112          0                                 1140900399999 
ENDENTRY             3          0                                 1140999999999 
