ENTRY            11414   19820813                             00001141400000001 
SUBENT        11414001   19820813                             00001141400100001 
BIB                  6          9                                 1141400100002 
INSTITUTE  (1USAANL)                                              1141400100003 
REFERENCE  (J,PR,124,500,61)                                      1141400100004 
           (W,HIBDON,6406) TABULATED DATA.                        1141400100005 
AUTHOR     (C.T.HIBDON)                                           1141400100006 
TITLE      NUCLEAR ENERGY LEVELS OF NA24 IN THE REGION FROM 630 TO1141400100007 
           860 KEV.                                               1141400100008 
STATUS     (SCSRS)                                                1141400100009 
HISTORY    (760715T) TRANSLATED FROM SCISRS                       1141400100010 
           (820813A) CONVERTED TO REACTION FORMALISM              1141400100011 
ENDBIB               9          0                                 1141400100012 
NOCOMMON             0          0                                 1141400100013 
ENDSUBENT           12          0                                 1141400199999 
SUBENT        11414002   19820813                             00001141400200001 
BIB                  2          2                                 1141400200002 
REACTION   (11-NA-23(N,TOT),,SIG)                                 1141400200003 
COMMENT    FLAT DETECTION.                                        1141400200004 
ENDBIB               2          0                                 1141400200005 
NOCOMMON             0          0                                 1141400200006 
DATA                 2        252                                 1141400200007 
EN         DATA                                                   1141400200008 
MEV        B                                                      1141400200009 
 6.300  -01 5.05   +00                                            1141400200010 
 6.310  -01 4.18   +00                                            1141400200011 
 6.320  -01 4.55   +00                                            1141400200012 
 6.330  -01 4.38   +00                                            1141400200013 
 6.340  -01 4.00   +00                                            1141400200014 
 6.350  -01 4.53   +00                                            1141400200015 
 6.360  -01 3.90   +00                                            1141400200016 
 6.370  -01 4.32   +00                                            1141400200017 
 6.380  -01 4.75   +00                                            1141400200018 
 6.390  -01 4.25   +00                                            1141400200019 
 6.400  -01 3.95   +00                                            1141400200020 
 6.410  -01 3.87   +00                                            1141400200021 
 6.420  -01 4.68   +00                                            1141400200022 
 6.430  -01 4.57   +00                                            1141400200023 
 6.430  -01 4.53   +00                                            1141400200024 
 6.440  -01 4.25   +00                                            1141400200025 
 6.450  -01 4.70   +00                                            1141400200026 
 6.460  -01 4.47   +00                                            1141400200027 
 6.470  -01 4.65   +00                                            1141400200028 
 6.480  -01 4.55   +00                                            1141400200029 
 6.490  -01 4.03   +00                                            1141400200030 
 6.500  -01 4.01   +00                                            1141400200031 
 6.510  -01 4.55   +00                                            1141400200032 
 6.520  -01 4.67   +00                                            1141400200033 
 6.530  -01 4.37   +00                                            1141400200034 
 6.540  -01 4.68   +00                                            1141400200035 
 6.550  -01 5.06   +00                                            1141400200036 
 6.560  -01 5.01   +00                                            1141400200037 
 6.570  -01 4.80   +00                                            1141400200038 
 6.580  -01 5.03   +00                                            1141400200039 
 6.590  -01 5.16   +00                                            1141400200040 
 6.600  -01 4.76   +00                                            1141400200041 
 6.610  -01 5.03   +00                                            1141400200042 
 6.620  -01 5.34   +00                                            1141400200043 
 6.630  -01 4.98   +00                                            1141400200044 
 6.640  -01 4.69   +00                                            1141400200045 
 6.650  -01 5.34   +00                                            1141400200046 
 6.660  -01 5.70   +00                                            1141400200047 
 6.670  -01 5.14   +00                                            1141400200048 
 6.670  -01 5.06   +00                                            1141400200049 
 6.680  -01 5.25   +00                                            1141400200050 
 6.680  -01 5.18   +00                                            1141400200051 
 6.685  -01 5.56   +00                                            1141400200052 
 6.690  -01 5.76   +00                                            1141400200053 
 6.690  -01 5.71   +00                                            1141400200054 
 6.700  -01 5.50   +00                                            1141400200055 
 6.710  -01 5.75   +00                                            1141400200056 
 6.720  -01 5.71   +00                                            1141400200057 
 6.730  -01 5.56   +00                                            1141400200058 
 6.740  -01 5.70   +00                                            1141400200059 
 6.750  -01 5.66   +00                                            1141400200060 
 6.760  -01 5.85   +00                                            1141400200061 
 6.770  -01 6.28   +00                                            1141400200062 
 6.780  -01 5.95   +00                                            1141400200063 
 6.790  -01 5.85   +00                                            1141400200064 
 6.800  -01 6.34   +00                                            1141400200065 
 6.810  -01 6.38   +00                                            1141400200066 
 6.820  -01 6.78   +00                                            1141400200067 
 6.830  -01 6.34   +00                                            1141400200068 
 6.840  -01 6.62   +00                                            1141400200069 
 6.850  -01 7.44   +00                                            1141400200070 
 6.860  -01 7.64   +00                                            1141400200071 
 6.870  -01 5.97   +00                                            1141400200072 
 6.880  -01 5.98   +00                                            1141400200073 
 6.890  -01 7.44   +00                                            1141400200074 
 6.900  -01 6.90   +00                                            1141400200075 
 6.910  -01 6.97   +00                                            1141400200076 
 6.920  -01 7.75   +00                                            1141400200077 
 6.930  -01 7.52   +00                                            1141400200078 
 6.940  -01 7.33   +00                                            1141400200079 
 6.950  -01 7.25   +00                                            1141400200080 
 6.960  -01 7.72   +00                                            1141400200081 
 6.970  -01 7.57   +00                                            1141400200082 
 6.980  -01 7.33   +00                                            1141400200083 
 6.990  -01 7.66   +00                                            1141400200084 
 7.000  -01 8.00   +00                                            1141400200085 
 7.010  -01 8.17   +00                                            1141400200086 
 7.020  -01 7.56   +00                                            1141400200087 
 7.030  -01 8.00   +00                                            1141400200088 
 7.040  -01 8.30   +00                                            1141400200089 
 7.050  -01 8.13   +00                                            1141400200090 
 7.060  -01 7.75   +00                                            1141400200091 
 7.070  -01 8.74   +00                                            1141400200092 
 7.080  -01 8.02   +00                                            1141400200093 
 7.090  -01 8.37   +00                                            1141400200094 
 7.100  -01 8.39   +00                                            1141400200095 
 7.110  -01 8.39   +00                                            1141400200096 
 7.120  -01 9.21   +00                                            1141400200097 
 7.130  -01 8.75   +00                                            1141400200098 
 7.140  -01 8.15   +00                                            1141400200099 
 7.150  -01 8.64   +00                                            1141400200100 
 7.160  -01 9.66   +00                                            1141400200101 
 7.170  -01 8.83   +00                                            1141400200102 
 7.180  -01 8.03   +00                                            1141400200103 
 7.190  -01 8.71   +00                                            1141400200104 
 7.200  -01 8.28   +00                                            1141400200105 
 7.210  -01 8.82   +00                                            1141400200106 
 7.220  -01 8.50   +00                                            1141400200107 
 7.230  -01 7.85   +00                                            1141400200108 
 7.240  -01 8.38   +00                                            1141400200109 
 7.250  -01 8.00   +00                                            1141400200110 
 7.260  -01 7.55   +00                                            1141400200111 
 7.270  -01 7.36   +00                                            1141400200112 
 7.280  -01 7.71   +00                                            1141400200113 
 7.290  -01 7.21   +00                                            1141400200114 
 7.300  -01 7.14   +00                                            1141400200115 
 7.310  -01 7.63   +00                                            1141400200116 
 7.320  -01 7.06   +00                                            1141400200117 
 7.330  -01 6.47   +00                                            1141400200118 
 7.340  -01 7.39   +00                                            1141400200119 
 7.350  -01 6.54   +00                                            1141400200120 
 7.360  -01 7.03   +00                                            1141400200121 
 7.370  -01 6.52   +00                                            1141400200122 
 7.380  -01 6.31   +00                                            1141400200123 
 7.390  -01 6.05   +00                                            1141400200124 
 7.390  -01 5.94   +00                                            1141400200125 
 7.400  -01 6.42   +00                                            1141400200126 
 7.410  -01 6.39   +00                                            1141400200127 
 7.420  -01 5.69   +00                                            1141400200128 
 7.430  -01 5.20   +00                                            1141400200129 
 7.440  -01 5.65   +00                                            1141400200130 
 7.450  -01 5.13   +00                                            1141400200131 
 7.460  -01 5.00   +00                                            1141400200132 
 7.470  -01 5.39   +00                                            1141400200133 
 7.480  -01 4.76   +00                                            1141400200134 
 7.490  -01 4.94   +00                                            1141400200135 
 7.500  -01 5.07   +00                                            1141400200136 
 7.510  -01 4.75   +00                                            1141400200137 
 7.520  -01 4.93   +00                                            1141400200138 
 7.530  -01 4.44   +00                                            1141400200139 
 7.540  -01 4.13   +00                                            1141400200140 
 7.550  -01 4.19   +00                                            1141400200141 
 7.560  -01 4.47   +00                                            1141400200142 
 7.570  -01 4.63   +00                                            1141400200143 
 7.580  -01 4.09   +00                                            1141400200144 
 7.590  -01 4.05   +00                                            1141400200145 
 7.600  -01 4.48   +00                                            1141400200146 
 7.610  -01 4.14   +00                                            1141400200147 
 7.620  -01 4.17   +00                                            1141400200148 
 7.630  -01 4.82   +00                                            1141400200149 
 7.640  -01 4.53   +00                                            1141400200150 
 7.650  -01 4.60   +00                                            1141400200151 
 7.660  -01 4.88   +00                                            1141400200152 
 7.665  -01 5.42   +00                                            1141400200153 
 7.670  -01 5.95   +00                                            1141400200154 
 7.680  -01 5.68   +00                                            1141400200155 
 7.680  -01 5.71   +00                                            1141400200156 
 7.690  -01 6.02   +00                                            1141400200157 
 7.700  -01 5.69   +00                                            1141400200158 
 7.710  -01 6.44   +00                                            1141400200159 
 7.720  -01 6.85   +00                                            1141400200160 
 7.730  -01 6.97   +00                                            1141400200161 
 7.740  -01 6.56   +00                                            1141400200162 
 7.750  -01 6.35   +00                                            1141400200163 
 7.750  -01 6.27   +00                                            1141400200164 
 7.760  -01 6.41   +00                                            1141400200165 
 7.760  -01 6.33   +00                                            1141400200166 
 7.770  -01 6.56   +00                                            1141400200167 
 7.770  -01 6.45   +00                                            1141400200168 
 7.780  -01 7.01   +00                                            1141400200169 
 7.780  -01 6.89   +00                                            1141400200170 
 7.790  -01 7.21   +00                                            1141400200171 
 7.790  -01 7.16   +00                                            1141400200172 
 7.800  -01 7.02   +00                                            1141400200173 
 7.810  -01 6.69   +00                                            1141400200174 
 7.820  -01 6.85   +00                                            1141400200175 
 7.830  -01 6.76   +00                                            1141400200176 
 7.840  -01 6.47   +00                                            1141400200177 
 7.850  -01 6.53   +00                                            1141400200178 
 7.860  -01 7.39   +00                                            1141400200179 
 7.870  -01 7.06   +00                                            1141400200180 
 7.880  -01 6.35   +00                                            1141400200181 
 7.890  -01 6.28   +00                                            1141400200182 
 7.900  -01 6.16   +00                                            1141400200183 
 7.910  -01 6.68   +00                                            1141400200184 
 7.920  -01 7.00   +00                                            1141400200185 
 7.930  -01 6.09   +00                                            1141400200186 
 7.940  -01 5.95   +00                                            1141400200187 
 7.950  -01 6.00   +00                                            1141400200188 
 7.960  -01 6.45   +00                                            1141400200189 
 7.970  -01 5.77   +00                                            1141400200190 
 7.980  -01 6.10   +00                                            1141400200191 
 7.980  -01 6.00   +00                                            1141400200192 
 7.990  -01 6.44   +00                                            1141400200193 
 7.990  -01 6.38   +00                                            1141400200194 
 8.000  -01 6.09   +00                                            1141400200195 
 8.000  -01 6.06   +00                                            1141400200196 
 8.010  -01 6.07   +00                                            1141400200197 
 8.010  -01 6.03   +00                                            1141400200198 
 8.020  -01 5.72   +00                                            1141400200199 
 8.020  -01 5.68   +00                                            1141400200200 
 8.030  -01 5.60   +00                                            1141400200201 
 8.030  -01 5.54   +00                                            1141400200202 
 8.040  -01 5.47   +00                                            1141400200203 
 8.040  -01 5.35   +00                                            1141400200204 
 8.050  -01 5.66   +00                                            1141400200205 
 8.050  -01 5.57   +00                                            1141400200206 
 8.060  -01 5.71   +00                                            1141400200207 
 8.070  -01 5.75   +00                                            1141400200208 
 8.080  -01 5.39   +00                                            1141400200209 
 8.090  -01 5.28   +00                                            1141400200210 
 8.100  -01 5.06   +00                                            1141400200211 
 8.110  -01 5.00   +00                                            1141400200212 
 8.120  -01 5.12   +00                                            1141400200213 
 8.130  -01 5.60   +00                                            1141400200214 
 8.140  -01 5.50   +00                                            1141400200215 
 8.150  -01 5.03   +00                                            1141400200216 
 8.160  -01 4.66   +00                                            1141400200217 
 8.170  -01 4.68   +00                                            1141400200218 
 8.180  -01 5.10   +00                                            1141400200219 
 8.190  -01 4.89   +00                                            1141400200220 
 8.200  -01 4.68   +00                                            1141400200221 
 8.210  -01 5.08   +00                                            1141400200222 
 8.220  -01 5.30   +00                                            1141400200223 
 8.230  -01 4.85   +00                                            1141400200224 
 8.240  -01 4.97   +00                                            1141400200225 
 8.250  -01 4.80   +00                                            1141400200226 
 8.260  -01 4.97   +00                                            1141400200227 
 8.270  -01 4.28   +00                                            1141400200228 
 8.280  -01 4.06   +00                                            1141400200229 
 8.290  -01 4.17   +00                                            1141400200230 
 8.300  -01 4.98   +00                                            1141400200231 
 8.310  -01 4.46   +00                                            1141400200232 
 8.320  -01 4.66   +00                                            1141400200233 
 8.330  -01 4.68   +00                                            1141400200234 
 8.340  -01 4.31   +00                                            1141400200235 
 8.350  -01 4.44   +00                                            1141400200236 
 8.360  -01 4.30   +00                                            1141400200237 
 8.370  -01 4.40   +00                                            1141400200238 
 8.380  -01 3.88   +00                                            1141400200239 
 8.390  -01 3.97   +00                                            1141400200240 
 8.400  -01 4.30   +00                                            1141400200241 
 8.410  -01 4.27   +00                                            1141400200242 
 8.420  -01 4.15   +00                                            1141400200243 
 8.430  -01 4.30   +00                                            1141400200244 
 8.440  -01 4.41   +00                                            1141400200245 
 8.450  -01 3.79   +00                                            1141400200246 
 8.460  -01 3.56   +00                                            1141400200247 
 8.470  -01 3.67   +00                                            1141400200248 
 8.480  -01 4.00   +00                                            1141400200249 
 8.490  -01 3.56   +00                                            1141400200250 
 8.500  -01 3.68   +00                                            1141400200251 
 8.510  -01 3.85   +00                                            1141400200252 
 8.520  -01 4.13   +00                                            1141400200253 
 8.530  -01 4.00   +00                                            1141400200254 
 8.540  -01 3.62   +00                                            1141400200255 
 8.550  -01 3.76   +00                                            1141400200256 
 8.560  -01 3.45   +00                                            1141400200257 
 8.570  -01 4.07   +00                                            1141400200258 
 8.580  -01 4.17   +00                                            1141400200259 
 8.590  -01 3.69   +00                                            1141400200260 
 8.600  -01 3.46   +00                                            1141400200261 
ENDDATA            254          0                                 1141400200262 
ENDSUBENT          261          0                                 1141400299999 
SUBENT        11414003   19820813                             00001141400300001 
BIB                  2          2                                 1141400300002 
REACTION   (11-NA-23(N,TOT),,SIG)                                 1141400300003 
COMMENT    SELF DETECTION.                                        1141400300004 
ENDBIB               2          0                                 1141400300005 
NOCOMMON             0          0                                 1141400300006 
DATA                 2        321                                 1141400300007 
EN         DATA                                                   1141400300008 
MEV        B                                                      1141400300009 
 6.300  -01 5.43   +00                                            1141400300010 
 6.305  -01 4.45   +00                                            1141400300011 
 6.310  -01 4.00   +00                                            1141400300012 
 6.315  -01 3.95   +00                                            1141400300013 
 6.320  -01 4.63   +00                                            1141400300014 
 6.325  -01 5.11   +00                                            1141400300015 
 6.330  -01 4.46   +00                                            1141400300016 
 6.335  -01 3.61   +00                                            1141400300017 
 6.340  -01 3.83   +00                                            1141400300018 
 6.345  -01 4.57   +00                                            1141400300019 
 6.350  -01 5.26   +00                                            1141400300020 
 6.355  -01 4.25   +00                                            1141400300021 
 6.360  -01 3.87   +00                                            1141400300022 
 6.365  -01 3.74   +00                                            1141400300023 
 6.375  -01 4.95   +00                                            1141400300024 
 6.380  -01 5.28   +00                                            1141400300025 
 6.385  -01 4.60   +00                                            1141400300026 
 6.385  -01 4.67   +00                                            1141400300027 
 6.415  -01 4.50   +00                                            1141400300028 
 6.420  -01 4.86   +00                                            1141400300029 
 6.425  -01 5.21   +00                                            1141400300030 
 6.430  -01 4.66   +00                                            1141400300031 
 6.440  -01 3.78   +00                                            1141400300032 
 6.445  -01 4.50   +00                                            1141400300033 
 6.450  -01 5.03   +00                                            1141400300034 
 6.455  -01 5.01   +00                                            1141400300035 
 6.460  -01 4.52   +00                                            1141400300036 
 6.465  -01 4.19   +00                                            1141400300037 
 6.470  -01 4.78   +00                                            1141400300038 
 6.475  -01 5.30   +00                                            1141400300039 
 6.480  -01 4.88   +00                                            1141400300040 
 6.485  -01 4.15   +00                                            1141400300041 
 6.490  -01 3.87   +00                                            1141400300042 
 6.505  -01 4.44   +00                                            1141400300043 
 6.510  -01 4.95   +00                                            1141400300044 
 6.515  -01 5.27   +00                                            1141400300045 
 6.525  -01 4.58   +00                                            1141400300046 
 6.530  -01 4.19   +00                                            1141400300047 
 6.535  -01 4.45   +00                                            1141400300048 
 6.540  -01 4.55   +00                                            1141400300049 
 6.545  -01 4.87   +00                                            1141400300050 
 6.550  -01 5.25   +00                                            1141400300051 
 6.555  -01 5.47   +00                                            1141400300052 
 6.560  -01 5.14   +00                                            1141400300053 
 6.570  -01 4.45   +00                                            1141400300054 
 6.580  -01 5.11   +00                                            1141400300055 
 6.585  -01 5.50   +00                                            1141400300056 
 6.590  -01 5.11   +00                                            1141400300057 
 6.600  -01 4.50   +00                                            1141400300058 
 6.610  -01 4.90   +00                                            1141400300059 
 6.615  -01 5.64   +00                                            1141400300060 
 6.620  -01 5.50   +00                                            1141400300061 
 6.640  -01 4.50   +00                                            1141400300062 
 6.650  -01 5.30   +00                                            1141400300063 
 6.655  -01 5.86   +00                                            1141400300064 
 6.660  -01 6.14   +00                                            1141400300065 
 6.665  -01 5.30   +00                                            1141400300066 
 6.680  -01 4.95   +00                                            1141400300067 
 6.690  -01 5.88   +00                                            1141400300068 
 6.695  -01 6.06   +00                                            1141400300069 
 6.700  -01 5.40   +00                                            1141400300070 
 6.705  -01 5.34   +00                                            1141400300071 
 6.710  -01 5.67   +00                                            1141400300072 
 6.715  -01 6.25   +00                                            1141400300073 
 6.720  -01 5.78   +00                                            1141400300074 
 6.725  -01 5.30   +00                                            1141400300075 
 6.730  -01 5.51   +00                                            1141400300076 
 6.735  -01 5.76   +00                                            1141400300077 
 6.740  -01 5.93   +00                                            1141400300078 
 6.745  -01 5.61   +00                                            1141400300079 
 6.750  -01 5.50   +00                                            1141400300080 
 6.755  -01 5.37   +00                                            1141400300081 
 6.765  -01 6.21   +00                                            1141400300082 
 6.770  -01 6.61   +00                                            1141400300083 
 6.775  -01 6.21   +00                                            1141400300084 
 6.785  -01 5.66   +00                                            1141400300085 
 6.790  -01 5.60   +00                                            1141400300086 
 6.795  -01 6.34   +00                                            1141400300087 
 6.800  -01 6.75   +00                                            1141400300088 
 6.805  -01 6.86   +00                                            1141400300089 
 6.810  -01 6.31   +00                                            1141400300090 
 6.815  -01 6.25   +00                                            1141400300091 
 6.820  -01 6.97   +00                                            1141400300092 
 6.825  -01 7.28   +00                                            1141400300093 
 6.830  -01 6.57   +00                                            1141400300094 
 6.835  -01 6.03   +00                                            1141400300095 
 6.840  -01 6.72   +00                                            1141400300096 
 6.850  -01 7.62   +00                                            1141400300097 
 6.855  -01 8.47   +00                                            1141400300098 
 6.855  -01 8.22   +00                                            1141400300099 
 6.860  -01 7.78   +00                                            1141400300100 
 6.865  -01 6.55   +00                                            1141400300101 
 6.865  -01 6.39   +00                                            1141400300102 
 6.870  -01 5.53   +00                                            1141400300103 
 6.870  -01 5.58   +00                                            1141400300104 
 6.875  -01 5.17   +00                                            1141400300105 
 6.880  -01 6.42   +00                                            1141400300106 
 6.885  -01 7.36   +00                                            1141400300107 
 6.890  -01 8.33   +00                                            1141400300108 
 6.895  -01 8.00   +00                                            1141400300109 
 6.900  -01 7.13   +00                                            1141400300110 
 6.905  -01 6.61   +00                                            1141400300111 
 6.910  -01 6.82   +00                                            1141400300112 
 6.915  -01 7.40   +00                                            1141400300113 
 6.920  -01 7.68   +00                                            1141400300114 
 6.925  -01 8.16   +00                                            1141400300115 
 6.930  -01 7.46   +00                                            1141400300116 
 6.940  -01 7.18   +00                                            1141400300117 
 6.950  -01 7.16   +00                                            1141400300118 
 6.955  -01 7.67   +00                                            1141400300119 
 6.960  -01 8.12   +00                                            1141400300120 
 6.965  -01 7.90   +00                                            1141400300121 
 6.970  -01 7.51   +00                                            1141400300122 
 6.980  -01 7.18   +00                                            1141400300123 
 6.990  -01 7.55   +00                                            1141400300124 
 6.995  -01 7.89   +00                                            1141400300125 
 7.000  -01 8.39   +00                                            1141400300126 
 7.005  -01 8.61   +00                                            1141400300127 
 7.010  -01 8.31   +00                                            1141400300128 
 7.020  -01 7.43   +00                                            1141400300129 
 7.030  -01 8.07   +00                                            1141400300130 
 7.035  -01 8.56   +00                                            1141400300131 
 7.040  -01 8.63   +00                                            1141400300132 
 7.050  -01 7.89   +00                                            1141400300133 
 7.060  -01 7.43   +00                                            1141400300134 
 7.065  -01 8.57   +00                                            1141400300135 
 7.070  -01 9.23   +00                                            1141400300136 
 7.070  -01 9.10   +00                                            1141400300137 
 7.075  -01 8.30   +00                                            1141400300138 
 7.075  -01 8.43   +00                                            1141400300139 
 7.080  -01 7.96   +00                                            1141400300140 
 7.085  -01 7.64   +00                                            1141400300141 
 7.090  -01 8.08   +00                                            1141400300142 
 7.095  -01 8.75   +00                                            1141400300143 
 7.105  -01 8.04   +00                                            1141400300144 
 7.110  -01 8.50   +00                                            1141400300145 
 7.115  -01 9.45   +00                                            1141400300146 
 7.120  -01 9.60   +00                                            1141400300147 
 7.125  -01 9.05   +00                                            1141400300148 
 7.130  -01 8.68   +00                                            1141400300149 
 7.140  -01 8.01   +00                                            1141400300150 
 7.150  -01 8.87   +00                                            1141400300151 
 7.155  -01 9.62   +00                                            1141400300152 
 7.160  -01 1.012  +01                                            1141400300153 
 7.165  -01 9.25   +00                                            1141400300154 
 7.175  -01 8.50   +00                                            1141400300155 
 7.180  -01 7.58   +00                                            1141400300156 
 7.190  -01 8.95   +00                                            1141400300157 
 7.200  -01 8.63   +00                                            1141400300158 
 7.200  -01 8.48   +00                                            1141400300159 
 7.205  -01 7.79   +00                                            1141400300160 
 7.210  -01 8.36   +00                                            1141400300161 
 7.215  -01 9.19   +00                                            1141400300162 
 7.220  -01 8.46   +00                                            1141400300163 
 7.230  -01 7.60   +00                                            1141400300164 
 7.235  -01 7.67   +00                                            1141400300165 
 7.240  -01 8.33   +00                                            1141400300166 
 7.245  -01 8.90   +00                                            1141400300167 
 7.250  -01 8.09   +00                                            1141400300168 
 7.260  -01 7.21   +00                                            1141400300169 
 7.270  -01 7.08   +00                                            1141400300170 
 7.275  -01 7.88   +00                                            1141400300171 
 7.280  -01 8.21   +00                                            1141400300172 
 7.285  -01 7.67   +00                                            1141400300173 
 7.295  -01 6.85   +00                                            1141400300174 
 7.300  -01 6.73   +00                                            1141400300175 
 7.305  -01 7.52   +00                                            1141400300176 
 7.310  -01 8.07   +00                                            1141400300177 
 7.315  -01 7.25   +00                                            1141400300178 
 7.320  -01 6.78   +00                                            1141400300179 
 7.330  -01 6.32   +00                                            1141400300180 
 7.340  -01 7.83   +00                                            1141400300181 
 7.350  -01 6.15   +00                                            1141400300182 
 7.360  -01 7.50   +00                                            1141400300183 
 7.365  -01 7.17   +00                                            1141400300184 
 7.370  -01 6.26   +00                                            1141400300185 
 7.380  -01 6.36   +00                                            1141400300186 
 7.390  -01 5.79   +00                                            1141400300187 
 7.395  -01 6.05   +00                                            1141400300188 
 7.400  -01 6.32   +00                                            1141400300189 
 7.405  -01 6.70   +00                                            1141400300190 
 7.410  -01 6.55   +00                                            1141400300191 
 7.415  -01 5.95   +00                                            1141400300192 
 7.420  -01 5.82   +00                                            1141400300193 
 7.435  -01 5.41   +00                                            1141400300194 
 7.440  -01 5.97   +00                                            1141400300195 
 7.445  -01 5.55   +00                                            1141400300196 
 7.450  -01 5.17   +00                                            1141400300197 
 7.460  -01 4.95   +00                                            1141400300198 
 7.470  -01 5.67   +00                                            1141400300199 
 7.480  -01 4.56   +00                                            1141400300200 
 7.490  -01 5.02   +00                                            1141400300201 
 7.500  -01 5.44   +00                                            1141400300202 
 7.505  -01 4.95   +00                                            1141400300203 
 7.510  -01 4.61   +00                                            1141400300204 
 7.520  -01 5.30   +00                                            1141400300205 
 7.530  -01 4.47   +00                                            1141400300206 
 7.540  -01 4.00   +00                                            1141400300207 
 7.550  -01 4.11   +00                                            1141400300208 
 7.560  -01 4.59   +00                                            1141400300209 
 7.565  -01 4.95   +00                                            1141400300210 
 7.570  -01 4.94   +00                                            1141400300211 
 7.575  -01 4.39   +00                                            1141400300212 
 7.580  -01 4.01   +00                                            1141400300213 
 7.590  -01 3.95   +00                                            1141400300214 
 7.595  -01 4.51   +00                                            1141400300215 
 7.600  -01 4.69   +00                                            1141400300216 
 7.605  -01 4.52   +00                                            1141400300217 
 7.610  -01 3.83   +00                                            1141400300218 
 7.625  -01 4.61   +00                                            1141400300219 
 7.625  -01 4.50   +00                                            1141400300220 
 7.630  -01 5.19   +00                                            1141400300221 
 7.635  -01 4.53   +00                                            1141400300222 
 7.640  -01 4.37   +00                                            1141400300223 
 7.645  -01 4.25   +00                                            1141400300224 
 7.650  -01 4.34   +00                                            1141400300225 
 7.656  -01 4.71   +00                                            1141400300226 
 7.660  -01 5.16   +00                                            1141400300227 
 7.665  -01 6.21   +00                                            1141400300228 
 7.665  -01 6.32   +00                                            1141400300229 
 7.670  -01 6.47   +00                                            1141400300230 
 7.675  -01 6.00   +00                                            1141400300231 
 7.675  -01 5.84   +00                                            1141400300232 
 7.680  -01 5.51   +00                                            1141400300233 
 7.685  -01 6.29   +00                                            1141400300234 
 7.690  -01 6.27   +00                                            1141400300235 
 7.700  -01 5.56   +00                                            1141400300236 
 7.710  -01 6.27   +00                                            1141400300237 
 7.720  -01 6.88   +00                                            1141400300238 
 7.730  -01 6.90   +00                                            1141400300239 
 7.740  -01 6.50   +00                                            1141400300240 
 7.750  -01 6.32   +00                                            1141400300241 
 7.760  -01 6.37   +00                                            1141400300242 
 7.770  -01 6.50   +00                                            1141400300243 
 7.780  -01 7.06   +00                                            1141400300244 
 7.790  -01 7.34   +00                                            1141400300245 
 7.800  -01 6.97   +00                                            1141400300246 
 7.800  -01 6.85   +00                                            1141400300247 
 7.810  -01 6.56   +00                                            1141400300248 
 7.820  -01 6.75   +00                                            1141400300249 
 7.820  -01 7.01   +00                                            1141400300250 
 7.830  -01 7.15   +00                                            1141400300251 
 7.840  -01 6.37   +00                                            1141400300252 
 7.850  -01 6.68   +00                                            1141400300253 
 7.860  -01 7.56   +00                                            1141400300254 
 7.865  -01 7.68   +00                                            1141400300255 
 7.870  -01 7.30   +00                                            1141400300256 
 7.880  -01 6.10   +00                                            1141400300257 
 7.890  -01 6.45   +00                                            1141400300258 
 7.900  -01 6.27   +00                                            1141400300259 
 7.910  -01 6.95   +00                                            1141400300260 
 7.920  -01 6.93   +00                                            1141400300261 
 7.930  -01 5.97   +00                                            1141400300262 
 7.940  -01 5.87   +00                                            1141400300263 
 7.950  -01 6.12   +00                                            1141400300264 
 7.960  -01 6.96   +00                                            1141400300265 
 7.970  -01 5.60   +00                                            1141400300266 
 7.980  -01 5.91   +00                                            1141400300267 
 7.990  -01 6.71   +00                                            1141400300268 
 8.000  -01 5.97   +00                                            1141400300269 
 8.010  -01 6.28   +00                                            1141400300270 
 8.020  -01 6.04   +00                                            1141400300271 
 8.030  -01 5.46   +00                                            1141400300272 
 8.040  -01 5.44   +00                                            1141400300273 
 8.050  -01 5.69   +00                                            1141400300274 
 8.060  -01 5.95   +00                                            1141400300275 
 8.070  -01 5.91   +00                                            1141400300276 
 8.080  -01 5.34   +00                                            1141400300277 
 8.090  -01 5.52   +00                                            1141400300278 
 8.100  -01 5.12   +00                                            1141400300279 
 8.110  -01 4.88   +00                                            1141400300280 
 8.120  -01 5.08   +00                                            1141400300281 
 8.130  -01 5.89   +00                                            1141400300282 
 8.140  -01 5.33   +00                                            1141400300283 
 8.150  -01 4.94   +00                                            1141400300284 
 8.160  -01 4.50   +00                                            1141400300285 
 8.170  -01 4.60   +00                                            1141400300286 
 8.180  -01 5.60   +00                                            1141400300287 
 8.190  -01 4.85   +00                                            1141400300288 
 8.200  -01 4.55   +00                                            1141400300289 
 8.210  -01 5.60   +00                                            1141400300290 
 8.220  -01 5.48   +00                                            1141400300291 
 8.230  -01 4.36   +00                                            1141400300292 
 8.240  -01 5.33   +00                                            1141400300293 
 8.250  -01 4.46   +00                                            1141400300294 
 8.260  -01 5.36   +00                                            1141400300295 
 8.270  -01 4.39   +00                                            1141400300296 
 8.280  -01 3.92   +00                                            1141400300297 
 8.290  -01 4.28   +00                                            1141400300298 
 8.300  -01 5.26   +00                                            1141400300299 
 8.310  -01 4.53   +00                                            1141400300300 
 8.320  -01 4.76   +00                                            1141400300301 
 8.325  -01 5.08   +00                                            1141400300302 
 8.330  -01 4.51   +00                                            1141400300303 
 8.340  -01 4.14   +00                                            1141400300304 
 8.350  -01 4.78   +00                                            1141400300305 
 8.360  -01 4.05   +00                                            1141400300306 
 8.370  -01 4.85   +00                                            1141400300307 
 8.380  -01 3.83   +00                                            1141400300308 
 8.390  -01 3.91   +00                                            1141400300309 
 8.400  -01 4.56   +00                                            1141400300310 
 8.410  -01 4.06   +00                                            1141400300311 
 8.420  -01 3.95   +00                                            1141400300312 
 8.430  -01 4.15   +00                                            1141400300313 
 8.440  -01 4.72   +00                                            1141400300314 
 8.450  -01 3.88   +00                                            1141400300315 
 8.460  -01 3.44   +00                                            1141400300316 
 8.470  -01 3.62   +00                                            1141400300317 
 8.480  -01 4.18   +00                                            1141400300318 
 8.490  -01 3.39   +00                                            1141400300319 
 8.500  -01 3.64   +00                                            1141400300320 
 8.510  -01 4.11   +00                                            1141400300321 
 8.520  -01 4.17   +00                                            1141400300322 
 8.530  -01 3.96   +00                                            1141400300323 
 8.540  -01 3.46   +00                                            1141400300324 
 8.550  -01 4.03   +00                                            1141400300325 
 8.560  -01 3.25   +00                                            1141400300326 
 8.570  -01 4.32   +00                                            1141400300327 
 8.580  -01 4.30   +00                                            1141400300328 
 8.590  -01 3.88   +00                                            1141400300329 
 8.600  -01 3.34   +00                                            1141400300330 
ENDDATA            323          0                                 1141400300331 
ENDSUBENT          330          0                                 1141400399999 
SUBENT        11414004   19820813                             00001141400400001 
BIB                  1          4                                 1141400400002 
REACTION  1(11-NA-23(N,0),,EN)                                    1141400400003 
          2(11-NA-23(N,0),,J)                                     1141400400004 
          3(11-NA-23(N,0),,L)                                     1141400400005 
          4(11-NA-23(N,TOT),,WID)                                 1141400400006 
ENDBIB               4          0                                 1141400400007 
NOCOMMON             0          0                                 1141400400008 
DATA                 4         73                                 1141400400009 
DATA      1DATA      2DATA      3DATA      4                      1141400400010 
KEV        NO-DIM     NO-DIM     KEV                              1141400400011 
 629.8      3.         2.         1.80                            1141400400012 
 632.9      2.         3.         1.00                            1141400400013 
 634.8      2.         3.         1.20                            1141400400014 
 638.0      3.         2.         2.20                            1141400400015 
 642.2      2.         3.         1.70                            1141400400016 
 645.1      2.         3.         1.40                            1141400400017 
 647.9      3.         3.         1.20                            1141400400018 
 651.5      3.         3.         1.90                            1141400400019 
 655.6      3.         2.         2.30                            1141400400020 
 658.1      3.         3.         1.60                            1141400400021 
 661.4      3.         2.         2.30                            1141400400022 
 665.8      4.         2.         2.00                            1141400400023 
 669.3      2.         2.         2.40                            1141400400024 
 672.0      3.         2.         1.80                            1141400400025 
 674.1      2.         2.         2.80                            1141400400026 
 676.6      3.         2.         2.60                            1141400400027 
 679.7      2.         2.         2.10                            1141400400028 
 682.4      4.         3.         1.70                            1141400400029 
 685.6      6.         4.         1.90                            1141400400030 
 688.8      6.         4.         1.70                            1141400400031 
 692.4      5.         4.         2.60                            1141400400032 
 696.5      4.         2.         3.40                            1141400400033 
 700.3      5.         3.         4.10                            1141400400034 
 703.3      4.         2.         2.50                            1141400400035 
 707.3      6.         4.         1.80                            1141400400036 
 709.5      6.         5.         1.60                            1141400400037 
 712.1      6.         4.         2.40                            1141400400038 
 716.0      7.         5.         3.00                            1141400400039 
 719.3      4.         3.         2.30                            1141400400040 
 721.6      6.         5.         2.20                            1141400400041 
 724.8      6.         4.         2.70                            1141400400042 
 727.9      4.         3.         2.70                            1141400400043 
 731.0      6.         4.         2.10                            1141400400044 
 734.0      6.         5.         1.70                            1141400400045 
 736.8      4.         2.         2.50                            1141400400046 
 740.5      5.         3.         3.00                            1141400400047 
 744.2      2.         2.         2.50                            1141400400048 
 747.0      3.         2.         2.50                            1141400400049 
 749.8      2.         2.         2.60                            1141400400050 
 752.4      1.         2.         2.20                            1141400400051 
 756.3      3.         2.         3.40                            1141400400052 
 759.8      1.         2.         1.90                            1141400400053 
 763.4      3.         2.         2.00                            1141400400054 
 766.7      5.         4.         1.80                            1141400400055 
 768.6      3.         2.         1.90                            1141400400056 
 773.3      5.         3.         3.20                            1141400400057 
 776.0      1.         2.         1.30                            1141400400058 
 778.2      5.         3.         2.90                            1141400400059 
 782.4      3.         2.         3.60                            1141400400060 
 786.3      6.         4.         2.60                            1141400400061 
 789.2      1.         2.         2.10                            1141400400062 
 792.4      5.         3.         2.90                            1141400400063 
 795.8      5.         4.         2.10                            1141400400064 
 798.7      5.         3.         2.40                            1141400400065 
 801.0      3.         2.         2.00                            1141400400066 
 802.7      1.         2.         2.10                            1141400400067 
 806.9      4.         2.         3.40                            1141400400068 
 809.0      1.         2.         2.20                            1141400400069 
 812.6      4.         2.         4.00                            1141400400070 
 818.0      2.         3.         2.00                            1141400400071 
 821.0      4.         3.         2.00                            1141400400072 
 824.0      3.         3.         2.00                            1141400400073 
 826.4      2.         3.         2.20                            1141400400074 
 830.1      4.         3.         2.10                            1141400400075 
 832.5      3.         3.         1.50                            1141400400076 
 835.0      2.         2.         2.30                            1141400400077 
 836.8      2.         3.         1.50                            1141400400078 
 841.2      3.         3.         2.20                            1141400400079 
 843.8      4.         3.         1.70                            1141400400080 
 847.7      3.         3.         2.30                            1141400400081 
 852.0      2.         2.         2.80                            1141400400082 
 854.5      1.         2.         2.60                            1141400400083 
 857.5      2.         2.         3.00                            1141400400084 
ENDDATA             75          0                                 1141400400085 
ENDSUBENT           84          0                                 1141400499999 
ENDENTRY             4          0                                 1141499999999 
