ENTRY            13154   20120711                             13841315400000001 
SUBENT        13154001   20120711                             13841315400100001 
BIB                 10         23                                 1315400100002 
INSTITUTE  (1USAANL)                                              1315400100003 
REFERENCE  (J,NSE,103,37,198909)                                  1315400100004 
AUTHOR     (M.Sugimoto,P.T.Guenther,J.E.Lynn,A.B.Smith,J.F.Whalen)1315400100005 
TITLE      The interaction of fast neutrons with beryllium        1315400100006 
SAMPLE     The measurement samples were bare cylinders of         1315400100007 
            high-purity elemental beryllium (100% 9Be).           1315400100008 
FACILITY   (DYNAM,1USAANL) 8 MV Argonne Tandem Dynamitron         1315400100009 
                                                     Accelerator  1315400100010 
REL-REF    (M,10935001,W.P.Poenitz+,J,NSE,78,333,1981)            1315400100011 
           (M,12853001,W.P.Poenitz+,R,ANL-NDM-80,1983)            1315400100012 
           (M,12835001,C.Budtz-Jorgensen,J,ZP/A,319,47,1984)      1315400100013 
           (M,,A.B.Smith+,J,JP/G,11,125,1985)                     1315400100014 
           (M,10468001,P.Guenther+,J,PR/C,12,1797,1975)           1315400100015 
              The experimental methods employed in the present    1315400100016 
            neutron total and scattering cross-section            1315400100017 
            measurements have been extensively described in       1315400100018 
            these refs.                                           1315400100019 
METHOD     (TOF)                                                  1315400100020 
STATUS     (APRVD) A.B.Smith, 1989/4/24.                          1315400100021 
HISTORY    (19890327C)                                            1315400100022 
           (20120711A) SD:Updated to new date formats,lower case. 1315400100023 
                Corrected according to last EXFOR rules and Dict. 1315400100024 
                BIB update.                                       1315400100025 
ENDBIB              23          0                                 1315400100026 
NOCOMMON             0          0                                 1315400100027 
ENDSUBENT           26          0                                 1315400199999 
SUBENT        13154002   20120711                             13841315400200001 
BIB                 11         22                                 1315400200002 
REACTION   (4-BE-9(N,EL)4-BE-9,,DA)                               1315400200003 
INC-SOURCE (D-D)                                                  1315400200004 
SAMPLE     2-cm-diam x 2-cm-long cylinder, with neutrons incident 1315400200005 
           upon the lateral cylindrical surface                   1315400200006 
DETECTOR   (SCIN) Liquid scintillation detectors whose relative   1315400200007 
           energy responses were calibrated using the neutrons    1315400200008 
           emitted from the fission of 252Cf                      1315400200009 
MONITOR    (1-H-1(N,EL)1-H-1,,DA)                                 1315400200010 
MONIT-REF  (,H.Konde+,R,IAEA-TECDOC-227,1983)                     1315400200011 
REL-REF    (I,,A.B.Smith+,J,NIM,50,277,1967) - Description of     1315400200012 
            multi-angle fast neutron time-of-flight system        1315400200013 
CORRECTION Corrected for: multiple scattering                     1315400200014 
                          beam attenuation                        1315400200015 
                          angular resolution                      1315400200016 
ERR-ANALYS (DATA-ERR) Overall uncertainty. The minimum overall    1315400200017 
           uncertainty associated with a differential value       1315400200018 
           was 3% (reflecting possible unidentified systematic    1315400200019 
           uncertainties associated with the detector             1315400200020 
           calibrations). The various uncertainty components were 1315400200021 
           combined in quadrature.                                1315400200022 
COMMENT    Multiple measurements at same energy                   1315400200023 
STATUS     (TABLE) Data received by electronic mail               1315400200024 
ENDBIB              22          0                                 1315400200025 
COMMON               1          3                                 1315400200026 
EN-ERR                                                            1315400200027 
KEV                                                               1315400200028 
 10.                                                              1315400200029 
ENDCOMMON            3          0                                 1315400200030 
DATA                 4        563                                 1315400200031 
EN         ANG        DATA       DATA-ERR                         1315400200032 
MEV        ADEG       B/SR       PER-CENT                         1315400200033 
4.500000    0.1820E+02 0.5700E+00 0.4000E+01                      1315400200034 
4.500000    0.2120E+02 0.5380E+00 0.4000E+01                      1315400200035 
4.500000    0.2610E+02 0.4770E+00 0.4000E+01                      1315400200036 
4.500000    0.2910E+02 0.4290E+00 0.4000E+01                      1315400200037 
4.500000    0.3140E+02 0.4100E+00 0.4000E+01                      1315400200038 
4.500000    0.3600E+02 0.3480E+00 0.4000E+01                      1315400200039 
4.500000    0.4000E+02 0.2970E+00 0.3000E+01                      1315400200040 
4.500000    0.4640E+02 0.2150E+00 0.3000E+01                      1315400200041 
4.500000    0.5200E+02 0.1730E+00 0.4000E+01                      1315400200042 
4.500000    0.5490E+02 0.1390E+00 0.4000E+01                      1315400200043 
4.500000    0.5940E+02 0.1110E+00 0.4000E+01                      1315400200044 
4.500000    0.6290E+02 0.8750E-01 0.3000E+01                      1315400200045 
4.500000    0.6740E+02 0.6420E-01 0.4000E+01                      1315400200046 
4.500000    0.7090E+02 0.5360E-01 0.3000E+01                      1315400200047 
4.500000    0.7790E+02 0.3520E-01 0.6790E+01                      1315400200048 
4.500000    0.8310E+02 0.2910E-01 0.8200E+01                      1315400200049 
4.500000    0.8590E+02 0.2820E-01 0.8470E+01                      1315400200050 
4.500000    0.9030E+02 0.2640E-01 0.9230E+01                      1315400200051 
4.500000    0.9440E+02 0.2520E-01 0.5950E+01                      1315400200052 
4.500000    0.9830E+02 0.2780E-01 0.9200E+01                      1315400200053 
4.500000    0.1020E+03 0.3070E-01 0.4890E+01                      1315400200054 
4.500000    0.1090E+03 0.3560E-01 0.7820E+01                      1315400200055 
4.500000    0.1140E+03 0.4130E-01 0.6870E+01                      1315400200056 
4.500000    0.1170E+03 0.4100E-01 0.6870E+01                      1315400200057 
4.500000    0.1210E+03 0.3990E-01 0.6990E+01                      1315400200058 
4.500000    0.1250E+03 0.4240E-01 0.3540E+01                      1315400200059 
4.500000    0.1290E+03 0.4200E-01 0.6900E+01                      1315400200060 
4.500000    0.1320E+03 0.4420E-01 0.3390E+01                      1315400200061 
4.500000    0.1400E+03 0.4340E-01 0.6630E+01                      1315400200062 
4.500000    0.1450E+03 0.4300E-01 0.6660E+01                      1315400200063 
4.500000    0.1470E+03 0.4730E-01 0.6100E+01                      1315400200064 
4.500000    0.1480E+03 0.4240E-01 0.6810E+01                      1315400200065 
4.500000    0.1520E+03 0.4280E-01 0.3500E+01                      1315400200066 
4.500000    0.1550E+03 0.4340E-01 0.6640E+01                      1315400200067 
4.500000    0.1570E+03 0.3910E-01 0.3840E+01                      1315400200068 
5.000000    0.1820E+02 0.5660E+00 0.3000E+01                      1315400200069 
5.000000    0.2120E+02 0.5410E+00 0.3000E+01                      1315400200070 
5.000000    0.2810E+02 0.4340E+00 0.3000E+01                      1315400200071 
5.000000    0.3000E+02 0.4000E+00 0.3000E+01                      1315400200072 
5.000000    0.3600E+02 0.3430E+00 0.3000E+01                      1315400200073 
5.000000    0.4000E+02 0.2690E+00 0.3000E+01                      1315400200074 
5.000000    0.4640E+02 0.2080E+00 0.3000E+01                      1315400200075 
5.000000    0.5200E+02 0.1570E+00 0.3000E+01                      1315400200076 
5.000000    0.5580E+02 0.1180E+00 0.3000E+01                      1315400200077 
5.000000    0.6240E+02 0.7630E-01 0.3290E+01                      1315400200078 
5.000000    0.6740E+02 0.5560E-01 0.4410E+01                      1315400200079 
5.000000    0.7090E+02 0.4290E-01 0.3490E+01                      1315400200080 
5.000000    0.7790E+02 0.2760E-01 0.8160E+01                      1315400200081 
5.000000    0.8310E+02 0.2350E-01 0.9520E+01                      1315400200082 
5.000000    0.8630E+02 0.2180E-01 0.6850E+01                      1315400200083 
5.000000    0.9330E+02 0.2450E-01 0.9640E+01                      1315400200084 
5.000000    0.9830E+02 0.2720E-01 0.9200E+01                      1315400200085 
5.000000    0.1020E+03 0.2570E-01 0.5840E+01                      1315400200086 
5.000000    0.1090E+03 0.3500E-01 0.7650E+01                      1315400200087 
5.000000    0.1140E+03 0.3960E-01 0.6820E+01                      1315400200088 
5.000000    0.1170E+03 0.3400E-01 0.4410E+01                      1315400200089 
5.000000    0.1240E+03 0.4200E-01 0.6550E+01                      1315400200090 
5.000000    0.1290E+03 0.4470E-01 0.6180E+01                      1315400200091 
5.000000    0.1320E+03 0.3900E-01 0.3850E+01                      1315400200092 
5.000000    0.1400E+03 0.4400E-01 0.6240E+01                      1315400200093 
5.000000    0.1450E+03 0.4430E-01 0.6250E+01                      1315400200094 
5.000000    0.1470E+03 0.4300E-01 0.3490E+01                      1315400200095 
5.000000    0.1500E+03 0.4610E-01 0.5990E+01                      1315400200096 
5.000000    0.1550E+03 0.4580E-01 0.6020E+01                      1315400200097 
5.000000    0.1570E+03 0.4540E-01 0.3300E+01                      1315400200098 
5.500000    0.1820E+02 0.5260E+00 0.3000E+01                      1315400200099 
5.500000    0.2070E+02 0.5250E+00 0.3000E+01                      1315400200100 
5.500000    0.2560E+02 0.4510E+00 0.3000E+01                      1315400200101 
5.500000    0.2800E+02 0.4300E+00 0.3000E+01                      1315400200102 
5.500000    0.2900E+02 0.4050E+00 0.3000E+01                      1315400200103 
5.500000    0.3090E+02 0.3830E+00 0.3000E+01                      1315400200104 
5.500000    0.3140E+02 0.3930E+00 0.3500E+01                      1315400200105 
5.500000    0.3600E+02 0.3150E+00 0.3500E+01                      1315400200106 
5.500000    0.3850E+02 0.2700E+00 0.3000E+01                      1315400200107 
5.500000    0.3900E+02 0.2860E+00 0.3000E+01                      1315400200108 
5.500000    0.4390E+02 0.2250E+00 0.3000E+01                      1315400200109 
5.500000    0.4620E+02 0.1940E+00 0.3000E+01                      1315400200110 
5.500000    0.4690E+02 0.1890E+00 0.3000E+01                      1315400200111 
5.500000    0.5150E+02 0.1380E+00 0.3000E+01                      1315400200112 
5.500000    0.5200E+02 0.1450E+00 0.3500E+01                      1315400200113 
5.500000    0.5490E+02 0.1210E+00 0.3500E+01                      1315400200114 
5.500000    0.5570E+02 0.1070E+00 0.3000E+01                      1315400200115 
5.500000    0.5940E+02 0.8730E-01 0.3000E+01                      1315400200116 
5.500000    0.6240E+02 0.6670E-01 0.4300E+01                      1315400200117 
5.500000    0.6270E+02 0.6650E-01 0.3000E+01                      1315400200118 
5.500000    0.6740E+02 0.4610E-01 0.5870E+01                      1315400200119 
5.500000    0.6990E+02 0.3690E-01 0.4070E+01                      1315400200120 
5.500000    0.7040E+02 0.3950E-01 0.6840E+01                      1315400200121 
5.500000    0.7490E+02 0.2980E-01 0.4650E+01                      1315400200122 
5.500000    0.7740E+02 0.2560E-01 0.5860E+01                      1315400200123 
5.500000    0.7790E+02 0.2380E-01 0.1090E+02                      1315400200124 
5.500000    0.8240E+02 0.2110E-01 0.7110E+01                      1315400200125 
5.500000    0.8310E+02 0.2080E-01 0.1220E+02                      1315400200126 
5.500000    0.8580E+02 0.2070E-01 0.6450E+01                      1315400200127 
5.500000    0.8610E+02 0.2010E-01 0.7430E+01                      1315400200128 
5.500000    0.9030E+02 0.2030E-01 0.6810E+01                      1315400200129 
5.500000    0.9330E+02 0.2090E-01 0.1290E+02                      1315400200130 
5.500000    0.9330E+02 0.2220E-01 0.6420E+01                      1315400200131 
5.500000    0.9790E+02 0.2260E-01 0.6640E+01                      1315400200132 
5.500000    0.9830E+02 0.2450E-01 0.5980E+01                      1315400200133 
5.500000    0.1010E+03 0.2530E-01 0.5870E+01                      1315400200134 
5.500000    0.1010E+03 0.2490E-01 0.6020E+01                      1315400200135 
5.500000    0.1060E+03 0.2740E-01 0.5540E+01                      1315400200136 
5.500000    0.1090E+03 0.2840E-01 0.1020E+02                      1315400200137 
5.500000    0.1090E+03 0.2930E-01 0.5230E+01                      1315400200138 
5.500000    0.1140E+03 0.3340E-01 0.8780E+01                      1315400200139 
5.500000    0.1160E+03 0.3180E-01 0.4720E+01                      1315400200140 
5.500000    0.1170E+03 0.3260E-01 0.4700E+01                      1315400200141 
5.500000    0.1210E+03 0.3380E-01 0.8740E+01                      1315400200142 
5.500000    0.1240E+03 0.3330E-01 0.8870E+01                      1315400200143 
5.500000    0.1240E+03 0.3380E-01 0.4600E+01                      1315400200144 
5.500000    0.1290E+03 0.3640E-01 0.8140E+01                      1315400200145 
5.500000    0.1290E+03 0.3500E-01 0.4420E+01                      1315400200146 
5.500000    0.1320E+03 0.3480E-01 0.4310E+01                      1315400200147 
5.500000    0.1320E+03 0.3500E-01 0.4290E+01                      1315400200148 
5.500000    0.1370E+03 0.3510E-01 0.4500E+01                      1315400200149 
5.500000    0.1400E+03 0.3710E-01 0.7940E+01                      1315400200150 
5.500000    0.1410E+03 0.3820E-01 0.3930E+01                      1315400200151 
5.500000    0.1450E+03 0.3980E-01 0.7580E+01                      1315400200152 
5.500000    0.1470E+03 0.3720E-01 0.4190E+01                      1315400200153 
5.500000    0.1470E+03 0.3950E-01 0.3800E+01                      1315400200154 
5.500000    0.1480E+03 0.3520E-01 0.4480E+01                      1315400200155 
5.500000    0.1500E+03 0.4080E-01 0.7350E+01                      1315400200156 
5.500000    0.1540E+03 0.3860E-01 0.3890E+01                      1315400200157 
5.500000    0.1550E+03 0.3680E-01 0.4230E+01                      1315400200158 
5.500000    0.1570E+03 0.4030E-01 0.3720E+01                      1315400200159 
5.899999    0.1730E+02 0.6110E+00 0.3030E+01                      1315400200160 
5.899999    0.2010E+02 0.5360E+00 0.3000E+01                      1315400200161 
5.899999    0.2110E+02 0.5220E+00 0.3000E+01                      1315400200162 
5.899999    0.2610E+02 0.4570E+00 0.3000E+01                      1315400200163 
5.899999    0.2800E+02 0.4310E+00 0.3000E+01                      1315400200164 
5.899999    0.2900E+02 0.4160E+00 0.3000E+01                      1315400200165 
5.899999    0.3010E+02 0.4110E+00 0.3100E+01                      1315400200166 
5.899999    0.3510E+02 0.3320E+00 0.3140E+01                      1315400200167 
5.899999    0.3810E+02 0.2820E+00 0.3160E+01                      1315400200168 
5.899999    0.4000E+02 0.2480E+00 0.3000E+01                      1315400200169 
5.899999    0.4390E+02 0.2130E+00 0.3000E+01                      1315400200170 
5.899999    0.4640E+02 0.1780E+00 0.3000E+01                      1315400200171 
5.899999    0.5100E+02 0.1400E+00 0.3260E+01                      1315400200172 
5.899999    0.5400E+02 0.1100E+00 0.3280E+01                      1315400200173 
5.899999    0.5580E+02 0.9320E-01 0.3000E+01                      1315400200174 
5.899999    0.5940E+02 0.7760E-01 0.3000E+01                      1315400200175 
5.899999    0.6240E+02 0.6220E-01 0.3000E+01                      1315400200176 
5.899999    0.6650E+02 0.4890E-01 0.3290E+01                      1315400200177 
5.899999    0.6950E+02 0.3700E-01 0.3260E+01                      1315400200178 
5.899999    0.7090E+02 0.2890E-01 0.5170E+01                      1315400200179 
5.899999    0.7490E+02 0.2560E-01 0.5390E+01                      1315400200180 
5.899999    0.7780E+02 0.2250E-01 0.6030E+01                      1315400200181 
5.899999    0.8190E+02 0.2000E-01 0.3050E+01                      1315400200182 
5.899999    0.8490E+02 0.1980E-01 0.3020E+01                      1315400200183 
5.899999    0.8620E+02 0.1850E-01 0.8110E+01                      1315400200184 
5.899999    0.9030E+02 0.2080E-01 0.6980E+01                      1315400200185 
5.899999    0.9330E+02 0.2240E-01 0.6580E+01                      1315400200186 
5.899999    0.9740E+02 0.2410E-01 0.3030E+01                      1315400200187 
5.899999    0.1000E+03 0.2540E-01 0.3040E+01                      1315400200188 
5.899999    0.1010E+03 0.2450E-01 0.6120E+01                      1315400200189 
5.899999    0.1060E+03 0.2710E-01 0.5630E+01                      1315400200190 
5.899999    0.1090E+03 0.2840E-01 0.5420E+01                      1315400200191 
5.899999    0.1130E+03 0.2900E-01 0.3010E+01                      1315400200192 
5.899999    0.1160E+03 0.3090E-01 0.3010E+01                      1315400200193 
5.899999    0.1170E+03 0.2910E-01 0.5150E+01                      1315400200194 
5.899999    0.1210E+03 0.3140E-01 0.4820E+01                      1315400200195 
5.899999    0.1240E+03 0.3210E-01 0.4780E+01                      1315400200196 
5.899999    0.1280E+03 0.3200E-01 0.3000E+01                      1315400200197 
5.899999    0.1310E+03 0.3110E-01 0.3000E+01                      1315400200198 
5.899999    0.1320E+03 0.2940E-01 0.5100E+01                      1315400200199 
5.899999    0.1370E+03 0.3070E-01 0.4890E+01                      1315400200200 
5.899999    0.1400E+03 0.3040E-01 0.4830E+01                      1315400200201 
5.899999    0.1440E+03 0.3310E-01 0.3000E+01                      1315400200202 
5.899999    0.1460E+03 0.3260E-01 0.3000E+01                      1315400200203 
5.899999    0.1470E+03 0.3240E-01 0.4630E+01                      1315400200204 
5.899999    0.1480E+03 0.3140E-01 0.4780E+01                      1315400200205 
5.899999    0.1500E+03 0.3350E-01 0.4500E+01                      1315400200206 
5.899999    0.1540E+03 0.3410E-01 0.3020E+01                      1315400200207 
5.899999    0.1570E+03 0.3560E-01 0.3020E+01                      1315400200208 
5.899999    0.1570E+03 0.3670E-01 0.4090E+01                      1315400200209 
6.500000    0.1820E+02 0.5870E+00 0.3000E+01                      1315400200210 
6.500000    0.2020E+02 0.5520E+00 0.3000E+01                      1315400200211 
6.500000    0.2520E+02 0.4590E+00 0.3000E+01                      1315400200212 
6.500000    0.2610E+02 0.4700E+00 0.3000E+01                      1315400200213 
6.500000    0.2900E+02 0.4210E+00 0.3000E+01                      1315400200214 
6.500000    0.3010E+02 0.3980E+00 0.3000E+01                      1315400200215 
6.500000    0.3510E+02 0.3180E+00 0.3000E+01                      1315400200216 
6.500000    0.3600E+02 0.3050E+00 0.3000E+01                      1315400200217 
6.500000    0.4390E+02 0.2020E+00 0.3000E+01                      1315400200218 
6.500000    0.4600E+02 0.1750E+00 0.3450E+01                      1315400200219 
6.500000    0.4690E+02 0.1670E+00 0.3000E+01                      1315400200220 
6.500000    0.5100E+02 0.1270E+00 0.3000E+01                      1315400200221 
6.500000    0.5400E+02 0.1000E-00 0.3500E+01                      1315400200222 
6.500000    0.5490E+02 0.9380E-01 0.3000E+01                      1315400200223 
6.500000    0.5940E+02 0.6540E-01 0.3000E+01                      1315400200224 
6.500000    0.6150E+02 0.5820E-01 0.3610E+01                      1315400200225 
6.500000    0.6300E+02 0.4870E-01 0.3070E+01                      1315400200226 
6.500000    0.6740E+02 0.3370E-01 0.4210E+01                      1315400200227 
6.500000    0.6940E+02 0.2890E-01 0.4050E+01                      1315400200228 
6.500000    0.7030E+02 0.2850E-01 0.4930E+01                      1315400200229 
6.500000    0.7490E+02 0.2150E-01 0.6310E+01                      1315400200230 
6.500000    0.7690E+02 0.1800E-01 0.5630E+01                      1315400200231 
6.500000    0.7890E+02 0.1800E-01 0.8290E+01                      1315400200232 
6.500000    0.8300E+02 0.1850E-01 0.7590E+01                      1315400200233 
6.500000    0.8490E+02 0.2000E-01 0.5050E+01                      1315400200234 
6.500000    0.8580E+02 0.1940E-01 0.7400E+01                      1315400200235 
6.500000    0.9030E+02 0.2100E-01 0.7130E+01                      1315400200236 
6.500000    0.9240E+02 0.2230E-01 0.4530E+01                      1315400200237 
6.500000    0.9450E+02 0.2300E-01 0.6520E+01                      1315400200238 
6.500000    0.9830E+02 0.2670E-01 0.5770E+01                      1315400200239 
6.500000    0.1010E+03 0.2670E-01 0.3760E+01                      1315400200240 
6.500000    0.1010E+03 0.2670E-01 0.5730E+01                      1315400200241 
6.500000    0.1060E+03 0.2950E-01 0.5300E+01                      1315400200242 
6.500000    0.1080E+03 0.2790E-01 0.3580E+01                      1315400200243 
6.500000    0.1100E+03 0.2770E-01 0.5420E+01                      1315400200244 
6.500000    0.1140E+03 0.3040E-01 0.5130E+01                      1315400200245 
6.500000    0.1160E+03 0.2970E-01 0.5050E+01                      1315400200246 
6.500000    0.1170E+03 0.3080E-01 0.5030E+01                      1315400200247 
6.500000    0.1210E+03 0.3080E-01 0.5100E+01                      1315400200248 
6.500000    0.1240E+03 0.3060E-01 0.5090E+01                      1315400200249 
6.500000    0.1280E+03 0.2880E-01 0.3470E+01                      1315400200250 
6.500000    0.1310E+03 0.2750E-01 0.3640E+01                      1315400200251 
6.500000    0.1320E+03 0.2820E-01 0.5380E+01                      1315400200252 
6.500000    0.1360E+03 0.2770E-01 0.3610E+01                      1315400200253 
6.500000    0.1390E+03 0.2620E-01 0.3820E+01                      1315400200254 
6.500000    0.1410E+03 0.2600E-01 0.5770E+01                      1315400200255 
6.500000    0.1440E+03 0.2680E-01 0.3730E+01                      1315400200256 
6.500000    0.1460E+03 0.2690E-01 0.3720E+01                      1315400200257 
6.500000    0.1470E+03 0.2780E-01 0.5240E+01                      1315400200258 
6.500000    0.1480E+03 0.2610E-01 0.5750E+01                      1315400200259 
6.500000    0.1490E+03 0.2660E-01 0.3760E+01                      1315400200260 
6.500000    0.1510E+03 0.3000E-01 0.5000E+01                      1315400200261 
6.500000    0.1540E+03 0.2810E-01 0.3560E+01                      1315400200262 
6.500000    0.1570E+03 0.2770E-01 0.5420E+01                      1315400200263 
6.500000    0.1570E+03 0.2850E-01 0.3520E+01                      1315400200264 
7.140000    0.1820E+02 0.5910E+00 0.3000E+01                      1315400200265 
7.140000    0.1980E+02 0.6040E+00 0.3000E+01                      1315400200266 
7.140000    0.2120E+02 0.5460E+00 0.3000E+01                      1315400200267 
7.140000    0.2610E+02 0.4640E+00 0.3000E+01                      1315400200268 
7.140000    0.2800E+02 0.4250E+00 0.3000E+01                      1315400200269 
7.140000    0.2900E+02 0.4160E+00 0.3000E+01                      1315400200270 
7.140000    0.2970E+02 0.4230E+00 0.3000E+01                      1315400200271 
7.140000    0.3140E+02 0.3750E+00 0.3000E+01                      1315400200272 
7.140000    0.3600E+02 0.2860E+00 0.3000E+01                      1315400200273 
7.140000    0.3900E+02 0.2500E+00 0.3000E+01                      1315400200274 
7.140000    0.4390E+02 0.1900E+00 0.3000E+01                      1315400200275 
7.140000    0.4610E+02 0.1730E+00 0.3000E+01                      1315400200276 
7.140000    0.4700E+02 0.1470E+00 0.3000E+01                      1315400200277 
7.140000    0.5190E+02 0.1100E+00 0.3000E+01                      1315400200278 
7.140000    0.5490E+02 0.8770E-01 0.3000E+01                      1315400200279 
7.140000    0.5940E+02 0.5720E-01 0.3000E+01                      1315400200280 
7.140000    0.6240E+02 0.4250E-01 0.3470E+01                      1315400200281 
7.140000    0.6260E+02 0.4460E-01 0.4470E+01                      1315400200282 
7.140000    0.6740E+02 0.2730E-01 0.5490E+01                      1315400200283 
7.140000    0.7030E+02 0.2310E-01 0.5890E+01                      1315400200284 
7.140000    0.7490E+02 0.1820E-01 0.7570E+01                      1315400200285 
7.140000    0.7780E+02 0.1690E-01 0.8220E+01                      1315400200286 
7.140000    0.7850E+02 0.1740E-01 0.1150E+02                      1315400200287 
7.140000    0.8300E+02 0.1770E-01 0.8140E+01                      1315400200288 
7.140000    0.8580E+02 0.1800E-01 0.8120E+01                      1315400200289 
7.140000    0.9030E+02 0.2180E-01 0.6990E+01                      1315400200290 
7.140000    0.9330E+02 0.2230E-01 0.6920E+01                      1315400200291 
7.140000    0.9410E+02 0.2200E-01 0.9090E+01                      1315400200292 
7.140000    0.9840E+02 0.2380E-01 0.6300E+01                      1315400200293 
7.140000    0.1010E+03 0.2540E-01 0.7860E+01                      1315400200294 
7.140000    0.1060E+03 0.2790E-01 0.5730E+01                      1315400200295 
7.140000    0.1090E+03 0.2870E-01 0.5520E+01                      1315400200296 
7.140000    0.1090E+03 0.2740E-01 0.7300E+01                      1315400200297 
7.140000    0.1140E+03 0.2890E-01 0.5420E+01                      1315400200298 
7.140000    0.1160E+03 0.2810E-01 0.5340E+01                      1315400200299 
7.140000    0.1210E+03 0.2720E-01 0.5770E+01                      1315400200300 
7.140000    0.1240E+03 0.2760E-01 0.5670E+01                      1315400200301 
7.140000    0.1240E+03 0.2560E-01 0.5860E+01                      1315400200302 
7.140000    0.1300E+03 0.2400E-01 0.6250E+01                      1315400200303 
7.140000    0.1320E+03 0.2390E-01 0.6350E+01                      1315400200304 
7.140000    0.1370E+03 0.2260E-01 0.6570E+01                      1315400200305 
7.140000    0.1390E+03 0.2130E-01 0.7040E+01                      1315400200306 
7.140000    0.1410E+03 0.1990E-01 0.1010E+02                      1315400200307 
7.140000    0.1450E+03 0.2050E-01 0.7040E+01                      1315400200308 
7.140000    0.1470E+03 0.2080E-01 0.6890E+01                      1315400200309 
7.140000    0.1470E+03 0.2040E-01 0.7350E+01                      1315400200310 
7.140000    0.1490E+03 0.1940E-01 0.7730E+01                      1315400200311 
7.140000    0.1550E+03 0.2150E-01 0.6810E+01                      1315400200312 
7.140000    0.1570E+03 0.2240E-01 0.6630E+01                      1315400200313 
7.500000    0.1680E+02 0.6370E+00 0.2610E+01                      1315400200314 
7.500000    0.2030E+02 0.6150E+00 0.3000E+01                      1315400200315 
7.500000    0.2540E+02 0.4720E+00 0.3000E+01                      1315400200316 
7.500000    0.2760E+02 0.4710E+00 0.2790E+01                      1315400200317 
7.500000    0.3020E+02 0.4200E+00 0.3000E+01                      1315400200318 
7.500000    0.3530E+02 0.3200E+00 0.3000E+01                      1315400200319 
7.500000    0.4250E+02 0.1910E+00 0.3220E+01                      1315400200320 
7.500000    0.4550E+02 0.1630E+00 0.3000E+01                      1315400200321 
7.500000    0.5190E+02 0.9650E-01 0.3000E+01                      1315400200322 
7.500000    0.5480E+02 0.8200E-01 0.3000E+01                      1315400200323 
7.500000    0.5800E+02 0.5880E-01 0.3670E+01                      1315400200324 
7.500000    0.6100E+02 0.4720E-01 0.3160E+01                      1315400200325 
7.500000    0.6310E+02 0.3830E-01 0.5210E+01                      1315400200326 
7.500000    0.6810E+02 0.2360E-01 0.8440E+01                      1315400200327 
7.500000    0.6990E+02 0.2130E-01 0.6980E+01                      1315400200328 
7.500000    0.7340E+02 0.1750E-01 0.2690E+01                      1315400200329 
7.500000    0.7660E+02 0.1570E-01 0.9490E+01                      1315400200330 
7.500000    0.7900E+02 0.1560E-01 0.1280E+02                      1315400200331 
7.500000    0.8440E+02 0.1800E-01 0.2560E+01                      1315400200332 
7.500000    0.8540E+02 0.1620E-01 0.9260E+01                      1315400200333 
7.500000    0.8890E+02 0.1930E-01 0.2590E+01                      1315400200334 
7.500000    0.9190E+02 0.2100E-01 0.7140E+01                      1315400200335 
7.500000    0.9460E+02 0.2200E-01 0.9080E+01                      1315400200336 
7.500000    0.9990E+02 0.2710E-01 0.2540E+01                      1315400200337 
7.500000    0.1010E+03 0.2560E-01 0.6330E+01                      1315400200338 
7.500000    0.1040E+03 0.2690E-01 0.2520E+01                      1315400200339 
7.500000    0.1070E+03 0.2510E-01 0.5980E+01                      1315400200340 
7.500000    0.1100E+03 0.2710E-01 0.7390E+01                      1315400200341 
7.500000    0.1150E+03 0.2880E-01 0.2500E+01                      1315400200342 
7.500000    0.1160E+03 0.2560E-01 0.5860E+01                      1315400200343 
7.500000    0.1200E+03 0.2580E-01 0.2510E+01                      1315400200344 
7.500000    0.1230E+03 0.2380E-01 0.6300E+01                      1315400200345 
7.500000    0.1250E+03 0.2430E-01 0.8230E+01                      1315400200346 
7.500000    0.1310E+03 0.2390E-01 0.2580E+01                      1315400200347 
7.500000    0.1320E+03 0.2160E-01 0.6940E+01                      1315400200348 
7.500000    0.1350E+03 0.2090E-01 0.2590E+01                      1315400200349 
7.500000    0.1400E+03 0.2000E-01 0.7500E+01                      1315400200350 
7.500000    0.1420E+03 0.1750E-01 0.1140E+02                      1315400200351 
7.500000    0.1450E+03 0.1760E-01 0.8310E+01                      1315400200352 
7.500000    0.1470E+03 0.1880E-01 0.7740E+01                      1315400200353 
7.500000    0.1480E+03 0.1770E-01 0.1130E+02                      1315400200354 
7.500000    0.1500E+03 0.1770E-01 0.8210E+01                      1315400200355 
7.500000    0.1520E+03 0.1630E-01 0.1230E+02                      1315400200356 
7.500000    0.1560E+03 0.1760E-01 0.2550E+01                      1315400200357 
7.500000    0.1580E+03 0.1900E-01 0.1050E+02                      1315400200358 
8.029000    0.1820E+02 0.6290E+00 0.3000E+01                      1315400200359 
8.029000    0.2110E+02 0.5840E+00 0.3000E+01                      1315400200360 
8.029000    0.2610E+02 0.5240E+00 0.3000E+01                      1315400200361 
8.029000    0.3130E+02 0.3690E+00 0.3000E+01                      1315400200362 
8.029000    0.3600E+02 0.3040E+00 0.3000E+01                      1315400200363 
8.029000    0.4390E+02 0.1850E+00 0.3000E+01                      1315400200364 
8.029000    0.5190E+02 0.1070E+00 0.3000E+01                      1315400200365 
8.029000    0.5490E+02 0.7770E-01 0.3000E+01                      1315400200366 
8.029000    0.6090E+02 0.4540E-01 0.3290E+01                      1315400200367 
8.029000    0.6740E+02 0.2470E-01 0.5550E+01                      1315400200368 
8.029000    0.7030E+02 0.1930E-01 0.7010E+01                      1315400200369 
8.029000    0.7650E+02 0.1500E-01 0.9930E+01                      1315400200370 
8.029000    0.8300E+02 0.1730E-01 0.8320E+01                      1315400200371 
8.029000    0.8580E+02 0.1860E-01 0.8010E+01                      1315400200372 
8.029000    0.9180E+02 0.2230E-01 0.6730E+01                      1315400200373 
8.029000    0.9830E+02 0.2580E-01 0.6280E+01                      1315400200374 
8.029000    0.1010E+03 0.2640E-01 0.6160E+01                      1315400200375 
8.029000    0.1070E+03 0.2800E-01 0.5360E+01                      1315400200376 
8.029000    0.1140E+03 0.2690E-01 0.5930E+01                      1315400200377 
8.029000    0.1170E+03 0.2650E-01 0.5940E+01                      1315400200378 
8.029000    0.1230E+03 0.2650E-01 0.5660E+01                      1315400200379 
8.029000    0.1290E+03 0.2230E-01 0.6760E+01                      1315400200380 
8.029000    0.1320E+03 0.2040E-01 0.7390E+01                      1315400200381 
8.029000    0.1400E+03 0.1940E-01 0.7550E+01                      1315400200382 
8.029000    0.1450E+03 0.1820E-01 0.8070E+01                      1315400200383 
8.029000    0.1470E+03 0.1860E-01 0.7900E+01                      1315400200384 
8.029000    0.1500E+03 0.1830E-01 0.8100E+01                      1315400200385 
8.029000    0.1550E+03 0.1780E-01 0.8170E+01                      1315400200386 
8.399999    0.1890E+02 0.6690E+00 0.3000E+01                      1315400200387 
8.399999    0.2040E+02 0.6460E+00 0.3000E+01                      1315400200388 
8.399999    0.2500E+02 0.5250E+00 0.3000E+01                      1315400200389 
8.399999    0.2680E+02 0.5040E+00 0.3000E+01                      1315400200390 
8.399999    0.2970E+02 0.4290E+00 0.3000E+01                      1315400200391 
8.399999    0.3030E+02 0.4190E+00 0.3000E+01                      1315400200392 
8.399999    0.3490E+02 0.3230E+00 0.3000E+01                      1315400200393 
8.399999    0.3670E+02 0.3050E+00 0.3000E+01                      1315400200394 
8.399999    0.4460E+02 0.1800E+00 0.3000E+01                      1315400200395 
8.399999    0.4670E+02 0.1570E+00 0.3000E+01                      1315400200396 
8.399999    0.5120E+02 0.1140E+00 0.3000E+01                      1315400200397 
8.399999    0.5440E+02 0.8710E-01 0.3000E+01                      1315400200398 
8.399999    0.6010E+02 0.4070E-01 0.3000E+01                      1315400200399 
8.399999    0.6310E+02 0.2920E-01 0.3000E+01                      1315400200400 
8.399999    0.6810E+02 0.1870E-01 0.3000E+01                      1315400200401 
8.399999    0.6950E+02 0.1830E-01 0.8110E+01                      1315400200402 
8.399999    0.7600E+02 0.1570E-01 0.3000E+01                      1315400200403 
8.399999    0.7850E+02 0.1630E-01 0.3000E+01                      1315400200404 
8.399999    0.8500E+02 0.1730E-01 0.8670E+01                      1315400200405 
8.399999    0.8650E+02 0.2080E-01 0.3000E+01                      1315400200406 
8.399999    0.9150E+02 0.1990E-01 0.7540E+01                      1315400200407 
8.399999    0.9470E+02 0.2290E-01 0.8740E+01                      1315400200408 
8.399999    0.1000E+03 0.2440E-01 0.6150E+01                      1315400200409 
8.399999    0.1020E+03 0.2780E-01 0.3000E+01                      1315400200410 
8.399999    0.1070E+03 0.2650E-01 0.5660E+01                      1315400200411 
8.399999    0.1100E+03 0.2790E-01 0.7170E+01                      1315400200412 
8.399999    0.1150E+03 0.2440E-01 0.6150E+01                      1315400200413 
8.399999    0.1170E+03 0.2600E-01 0.3000E+01                      1315400200414 
8.399999    0.1220E+03 0.2270E-01 0.6610E+01                      1315400200415 
8.399999    0.1250E+03 0.2300E-01 0.8710E+01                      1315400200416 
8.399999    0.1310E+03 0.2060E-01 0.7280E+01                      1315400200417 
8.399999    0.1330E+03 0.2140E-01 0.3000E+01                      1315400200418 
8.399999    0.1400E+03 0.1760E-01 0.3000E+01                      1315400200419 
8.399999    0.1450E+03 0.1730E-01 0.3000E+01                      1315400200420 
8.399999    0.1470E+03 0.1700E-01 0.3000E+01                      1315400200421 
8.399999    0.1480E+03 0.1580E-01 0.1260E+02                      1315400200422 
8.399999    0.1500E+03 0.1680E-01 0.8880E+01                      1315400200423 
8.399999    0.1550E+03 0.1840E-01 0.3000E+01                      1315400200424 
8.399999    0.1580E+03 0.1880E-01 0.3000E+01                      1315400200425 
9.059999    0.1810E+02 0.6980E+00 0.3000E+01                      1315400200426 
9.059999    0.1980E+02 0.6430E+00 0.3000E+01                      1315400200427 
9.059999    0.2110E+02 0.6310E+00 0.3000E+01                      1315400200428 
9.059999    0.2500E+02 0.5340E+00 0.3000E+01                      1315400200429 
9.059999    0.2600E+02 0.5310E+00 0.3000E+01                      1315400200430 
9.059999    0.2800E+02 0.4770E+00 0.3000E+01                      1315400200431 
9.059999    0.2900E+02 0.4590E+00 0.3000E+01                      1315400200432 
9.059999    0.2970E+02 0.4400E+00 0.3000E+01                      1315400200433 
9.059999    0.3130E+02 0.4050E+00 0.3000E+01                      1315400200434 
9.059999    0.3490E+02 0.3340E+00 0.3000E+01                      1315400200435 
9.059999    0.3590E+02 0.3100E+00 0.3000E+01                      1315400200436 
9.059999    0.3890E+02 0.2550E+00 0.3000E+01                      1315400200437 
9.059999    0.4390E+02 0.1740E+00 0.3000E+01                      1315400200438 
9.059999    0.4510E+02 0.1550E+00 0.3000E+01                      1315400200439 
9.059999    0.4760E+02 0.1400E+00 0.3660E+01                      1315400200440 
9.059999    0.5260E+02 0.9130E-01 0.3790E+01                      1315400200441 
9.059999    0.5480E+02 0.6920E-01 0.3000E+01                      1315400200442 
9.059999    0.5930E+02 0.4200E-01 0.4480E+01                      1315400200443 
9.059999    0.6060E+02 0.3970E-01 0.3000E+01                      1315400200444 
9.059999    0.6310E+02 0.3190E-01 0.6150E+01                      1315400200445 
9.059999    0.6730E+02 0.1880E-01 0.9390E+01                      1315400200446 
9.059999    0.6810E+02 0.2170E-01 0.4570E+01                      1315400200447 
9.059999    0.7030E+02 0.1680E-01 0.1060E+02                      1315400200448 
9.059999    0.7530E+02 0.1610E-01 0.1160E+02                      1315400200449 
9.059999    0.7620E+02 0.1590E-01 0.6290E+01                      1315400200450 
9.059999    0.7850E+02 0.1670E-01 0.1140E+02                      1315400200451 
9.059999    0.8280E+02 0.1930E-01 0.1050E+02                      1315400200452 
9.059999    0.8500E+02 0.1730E-01 0.5780E+01                      1315400200453 
9.059999    0.8580E+02 0.2040E-01 0.1020E+02                      1315400200454 
9.059999    0.9020E+02 0.2110E-01 0.9890E+01                      1315400200455 
9.059999    0.9150E+02 0.2040E-01 0.4900E+01                      1315400200456 
9.059999    0.9400E+02 0.2280E-01 0.9310E+01                      1315400200457 
9.059999    0.9820E+02 0.2450E-01 0.8530E+01                      1315400200458 
9.059999    0.1000E+03 0.2500E-01 0.4000E+01                      1315400200459 
9.059999    0.1010E+03 0.2480E-01 0.4040E+01                      1315400200460 
9.059999    0.1060E+03 0.2690E-01 0.7710E+01                      1315400200461 
9.059999    0.1070E+03 0.2490E-01 0.4020E+01                      1315400200462 
9.059999    0.1100E+03 0.2830E-01 0.7350E+01                      1315400200463 
9.059999    0.1140E+03 0.2640E-01 0.7830E+01                      1315400200464 
9.059999    0.1150E+03 0.2470E-01 0.4050E+01                      1315400200465 
9.059999    0.1170E+03 0.2490E-01 0.8330E+01                      1315400200466 
9.059999    0.1210E+03 0.2310E-01 0.9030E+01                      1315400200467 
9.059999    0.1220E+03 0.2390E-01 0.4180E+01                      1315400200468 
9.059999    0.1250E+03 0.2120E-01 0.9470E+01                      1315400200469 
9.059999    0.1290E+03 0.2010E-01 0.9880E+01                      1315400200470 
9.059999    0.1310E+03 0.1970E-01 0.5080E+01                      1315400200471 
9.059999    0.1320E+03 0.1790E-01 0.5580E+01                      1315400200472 
9.059999    0.1370E+03 0.1730E-01 0.1100E+02                      1315400200473 
9.059999    0.1400E+03 0.1670E-01 0.1120E+02                      1315400200474 
9.059999    0.1400E+03 0.1530E-01 0.6540E+01                      1315400200475 
9.059999    0.1450E+03 0.1430E-01 0.1270E+02                      1315400200476 
9.059999    0.1470E+03 0.1450E-01 0.1250E+02                      1315400200477 
9.059999    0.1480E+03 0.1500E-01 0.1210E+02                      1315400200478 
9.059999    0.1500E+03 0.1480E-01 0.1240E+02                      1315400200479 
9.059999    0.1550E+03 0.1520E-01 0.1230E+02                      1315400200480 
9.059999    0.1570E+03 0.1650E-01 0.1150E+02                      1315400200481 
9.059999    0.1580E+03 0.1590E-01 0.6310E+01                      1315400200482 
9.500000    0.1780E+02 0.7340E+00 0.3000E+01                      1315400200483 
9.500000    0.1960E+02 0.6500E+00 0.3000E+01                      1315400200484 
9.500000    0.2180E+02 0.6330E+00 0.3150E+01                      1315400200485 
9.500000    0.2570E+02 0.5430E+00 0.3000E+01                      1315400200486 
9.500000    0.2870E+02 0.4730E+00 0.3260E+01                      1315400200487 
9.500000    0.2970E+02 0.4480E+00 0.3280E+01                      1315400200488 
9.500000    0.3470E+02 0.3420E+00 0.3000E+01                      1315400200489 
9.500000    0.3670E+02 0.3010E+00 0.3420E+01                      1315400200490 
9.500000    0.4460E+02 0.1620E+00 0.3620E+01                      1315400200491 
9.500000    0.5260E+02 0.7900E-01 0.3860E+01                      1315400200492 
9.500000    0.6010E+02 0.3860E-01 0.5440E+01                      1315400200493 
9.500000    0.6310E+02 0.2910E-01 0.6610E+01                      1315400200494 
9.500000    0.6810E+02 0.1830E-01 0.9700E+01                      1315400200495 
9.500000    0.7100E+02 0.1650E-01 0.1090E+02                      1315400200496 
9.500000    0.7550E+02 0.1580E-01 0.1210E+02                      1315400200497 
9.500000    0.7740E+02 0.1770E-01 0.1130E+02                      1315400200498 
9.500000    0.8260E+02 0.2110E-01 0.9480E+01                      1315400200499 
9.500000    0.8480E+02 0.1960E-01 0.7650E+01                      1315400200500 
9.500000    0.8990E+02 0.2370E-01 0.8970E+01                      1315400200501 
9.500000    0.9130E+02 0.2360E-01 0.6360E+01                      1315400200502 
9.500000    0.9400E+02 0.2270E-01 0.9450E+01                      1315400200503 
9.500000    0.9900E+02 0.2300E-01 0.9210E+01                      1315400200504 
9.500000    0.1020E+03 0.2290E-01 0.9240E+01                      1315400200505 
9.500000    0.1060E+03 0.2510E-01 0.8330E+01                      1315400200506 
9.500000    0.1080E+03 0.2740E-01 0.7670E+01                      1315400200507 
9.500000    0.1130E+03 0.2570E-01 0.7950E+01                      1315400200508 
9.500000    0.1150E+03 0.2460E-01 0.6100E+01                      1315400200509 
9.500000    0.1210E+03 0.2360E-01 0.8490E+01                      1315400200510 
9.500000    0.1220E+03 0.2020E-01 0.9990E+01                      1315400200511 
9.500000    0.1250E+03 0.1840E-01 0.1080E+02                      1315400200512 
9.500000    0.1300E+03 0.1680E-01 0.1170E+02                      1315400200513 
9.500000    0.1360E+03 0.1760E-01 0.1140E+02                      1315400200514 
9.500000    0.1390E+03 0.1610E-01 0.1240E+02                      1315400200515 
9.500000    0.1400E+03 0.1400E-01 0.1350E+02                      1315400200516 
9.500000    0.1450E+03 0.1390E-01 0.1360E+02                      1315400200517 
9.500000    0.1470E+03 0.1430E-01 0.1340E+02                      1315400200518 
9.500000    0.1490E+03 0.1400E-01 0.1430E+02                      1315400200519 
9.500000    0.1500E+03 0.1310E-01 0.1150E+02                      1315400200520 
9.500000    0.1560E+03 0.1490E-01 0.1010E+02                      1315400200521 
9.999001    0.1820E+02 0.6720E+00 0.3000E+01                      1315400200522 
9.999001    0.1970E+02 0.6960E+00 0.3000E+01                      1315400200523 
9.999001    0.2110E+02 0.6160E+00 0.3000E+01                      1315400200524 
9.999001    0.2470E+02 0.5730E+00 0.3000E+01                      1315400200525 
9.999001    0.2610E+02 0.5130E+00 0.3000E+01                      1315400200526 
9.999001    0.2900E+02 0.4490E+00 0.3000E+01                      1315400200527 
9.999001    0.2960E+02 0.4780E+00 0.3000E+01                      1315400200528 
9.999001    0.3130E+02 0.3890E+00 0.3000E+01                      1315400200529 
9.999001    0.3200E+02 0.4010E+00 0.4660E+01                      1315400200530 
9.999001    0.3460E+02 0.3500E+00 0.3000E+01                      1315400200531 
9.999001    0.3860E+02 0.2690E+00 0.3250E+01                      1315400200532 
9.999001    0.3970E+02 0.2280E+00 0.4750E+01                      1315400200533 
9.999001    0.4460E+02 0.1690E+00 0.4810E+01                      1315400200534 
9.999001    0.4650E+02 0.1420E+00 0.3430E+01                      1315400200535 
9.999001    0.4750E+02 0.1180E+00 0.3000E+01                      1315400200536 
9.999001    0.5490E+02 0.6510E-01 0.3000E+01                      1315400200537 
9.999001    0.5940E+02 0.4160E-01 0.3460E+01                      1315400200538 
9.999001    0.6110E+02 0.3850E-01 0.3860E+01                      1315400200539 
9.999001    0.6240E+02 0.3030E-01 0.4640E+01                      1315400200540 
9.999001    0.6300E+02 0.2890E-01 0.5150E+01                      1315400200541 
9.999001    0.6450E+02 0.2600E-01 0.5780E+01                      1315400200542 
9.999001    0.6740E+02 0.2040E-01 0.6690E+01                      1315400200543 
9.999001    0.6810E+02 0.1910E-01 0.7930E+01                      1315400200544 
9.999001    0.6990E+02 0.1870E-01 0.1340E+02                      1315400200545 
9.999001    0.7030E+02 0.1720E-01 0.8030E+01                      1315400200546 
9.999001    0.7490E+02 0.1570E-01 0.9190E+01                      1315400200547 
9.999001    0.7670E+02 0.1530E-01 0.9740E+01                      1315400200548 
9.999001    0.7740E+02 0.1840E-01 0.1360E+02                      1315400200549 
9.999001    0.7840E+02 0.1720E-01 0.8700E+01                      1315400200550 
9.999001    0.7890E+02 0.1620E-01 0.9250E+01                      1315400200551 
9.999001    0.8300E+02 0.1800E-01 0.8540E+01                      1315400200552 
9.999001    0.8440E+02 0.1920E-01 0.7820E+01                      1315400200553 
9.999001    0.8540E+02 0.2250E-01 0.1110E+02                      1315400200554 
9.999001    0.8580E+02 0.2030E-01 0.7770E+01                      1315400200555 
9.999001    0.9030E+02 0.2180E-01 0.7380E+01                      1315400200556 
9.999001    0.9200E+02 0.2480E-01 0.6050E+01                      1315400200557 
9.999001    0.9290E+02 0.2500E-01 0.1000E+02                      1315400200558 
9.999001    0.9400E+02 0.2450E-01 0.6130E+01                      1315400200559 
9.999001    0.9440E+02 0.2300E-01 0.6510E+01                      1315400200560 
9.999001    0.9790E+02 0.2800E-01 0.8930E+01                      1315400200561 
9.999001    0.9900E+02 0.2650E-01 0.5660E+01                      1315400200562 
9.999001    0.1010E+03 0.2720E-01 0.5510E+01                      1315400200563 
9.999001    0.1010E+03 0.2790E-01 0.8960E+01                      1315400200564 
9.999001    0.1060E+03 0.2590E-01 0.6260E+01                      1315400200565 
9.999001    0.1080E+03 0.2500E-01 0.5990E+01                      1315400200566 
9.999001    0.1090E+03 0.2550E-01 0.6310E+01                      1315400200567 
9.999001    0.1090E+03 0.2340E-01 0.6400E+01                      1315400200568 
9.999001    0.1110E+03 0.2330E-01 0.6430E+01                      1315400200569 
9.999001    0.1140E+03 0.2440E-01 0.6530E+01                      1315400200570 
9.999001    0.1160E+03 0.2340E-01 0.1070E+02                      1315400200571 
9.999001    0.1160E+03 0.2250E-01 0.6670E+01                      1315400200572 
9.999001    0.1170E+03 0.2070E-01 0.7270E+01                      1315400200573 
9.999001    0.1220E+03 0.1850E-01 0.8130E+01                      1315400200574 
9.999001    0.1240E+03 0.2080E-01 0.7390E+01                      1315400200575 
9.999001    0.1240E+03 0.1890E-01 0.7930E+01                      1315400200576 
9.999001    0.1260E+03 0.1850E-01 0.8030E+01                      1315400200577 
9.999001    0.1290E+03 0.1920E-01 0.1300E+02                      1315400200578 
9.999001    0.1310E+03 0.1650E-01 0.9100E+01                      1315400200579 
9.999001    0.1320E+03 0.1660E-01 0.8830E+01                      1315400200580 
9.999001    0.1320E+03 0.1600E-01 0.9460E+01                      1315400200581 
9.999001    0.1370E+03 0.1570E-01 0.9480E+01                      1315400200582 
9.999001    0.1400E+03 0.1540E-01 0.9680E+01                      1315400200583 
9.999001    0.1410E+03 0.1440E-01 0.1030E+02                      1315400200584 
9.999001    0.1420E+03 0.1400E-01 0.1030E+02                      1315400200585 
9.999001    0.1450E+03 0.1310E-01 0.1150E+02                      1315400200586 
9.999001    0.1470E+03 0.1290E-01 0.1150E+02                      1315400200587 
9.999001    0.1470E+03 0.1190E-01 0.1260E+02                      1315400200588 
9.999001    0.1470E+03 0.1280E-01 0.1130E+02                      1315400200589 
9.999001    0.1480E+03 0.1210E-01 0.1240E+02                      1315400200590 
9.999001    0.1490E+03 0.1400E-01 0.1790E+02                      1315400200591 
9.999001    0.1500E+03 0.1360E-01 0.1100E+02                      1315400200592 
9.999001    0.1510E+03 0.1240E-01 0.1210E+02                      1315400200593 
9.999001    0.1520E+03 0.1270E-01 0.1150E+02                      1315400200594 
9.999001    0.1550E+03 0.1420E-01 0.1030E+02                      1315400200595 
9.999001    0.1570E+03 0.1450E-01 0.9980E+01                      1315400200596 
ENDDATA            565          0                                 1315400200597 
ENDSUBENT          596          0                                 1315400299999 
SUBENT        13154003   20120711                             13841315400300001 
BIB                 10         23                                 1315400300002 
REACTION   (4-BE-9(N,INL)4-BE-9,PAR,DA)                           1315400300003 
INC-SOURCE (D-D)                                                  1315400300004 
DETECTOR   (SCIN) Liquid scintillation detectors                  1315400300005 
MONITOR    (1-H-1(N,EL)1-H-1,,DA)                                 1315400300006 
MONIT-REF  (,H.Konde+,R,IAEA-TECDOC-227,1983)                     1315400300007 
REL-REF    (I,,A.B.Smith+,J,NIM,50,277,1967) - Description of     1315400300008 
            multi-angle fast neutron time-of-flight system        1315400300009 
CORRECTION Corrected for: multiple scattering                     1315400300010 
                          beam attenuation                        1315400300011 
                          angular resolution                      1315400300012 
ERR-ANALYS (DATA-ERR) A minimum systematic uncertainty of 10% was 1315400300013 
           assigned to all the measured differential inelastic    1315400300014 
           scattering values, as a conservative estimate of       1315400300015 
           uncertainties involved in the continuum subtraction    1315400300016 
           and summing procedures outlined in the article. At     1315400300017 
           large scattering angles and lower energies, the        1315400300018 
           experimental uncertainties can considerably exceed the 1315400300019 
           minimum systematic uncertainty. This increase arises   1315400300020 
           from counting statistics and assuming a minimum        1315400300021 
           uncertainty of 1.5 mb/sr due to unidentified causes,   1315400300022 
           as accepted for the elastic scattering measurements.   1315400300023 
COMMENT    Multiple measurements at same energy                   1315400300024 
STATUS     (TABLE) Data received by electronic mail               1315400300025 
ENDBIB              23          0                                 1315400300026 
COMMON               3          3                                 1315400300027 
E-EXC      E-EXC-ERR  EN-ERR                                      1315400300028 
MEV        MEV        KEV                                         1315400300029 
2.43       0.06        10.                                        1315400300030 
ENDCOMMON            3          0                                 1315400300031 
DATA                 4        474                                 1315400300032 
EN         ANG        DATA       DATA-ERR                         1315400300033 
MEV        ADEG       B/SR       PER-CENT                         1315400300034 
4.500000    0.1820E+02 0.4270E-01 0.1000E+02                      1315400300035 
4.500000    0.2610E+02 0.4830E-01 0.1000E+02                      1315400300036 
4.500000    0.2810E+02 0.4630E-01 0.1000E+02                      1315400300037 
4.500000    0.3140E+02 0.4260E-01 0.1000E+02                      1315400300038 
4.500000    0.3600E+02 0.4150E-01 0.1000E+02                      1315400300039 
4.500000    0.4400E+02 0.4000E-01 0.1000E+02                      1315400300040 
4.500000    0.5200E+02 0.3650E-01 0.1000E+02                      1315400300041 
4.500000    0.5490E+02 0.3050E-01 0.1000E+02                      1315400300042 
4.500000    0.6240E+02 0.3110E-01 0.1000E+02                      1315400300043 
4.500000    0.6740E+02 0.2660E-01 0.1000E+02                      1315400300044 
4.500000    0.7500E+02 0.2410E-01 0.1000E+02                      1315400300045 
4.500000    0.8310E+02 0.1900E-01 0.1230E+02                      1315400300046 
4.500000    0.8590E+02 0.1830E-01 0.1240E+02                      1315400300047 
4.500000    0.9330E+02 0.1760E-01 0.1260E+02                      1315400300048 
4.500000    0.9830E+02 0.1400E-01 0.1550E+02                      1315400300049 
4.500000    0.1060E+03 0.1420E-01 0.1480E+02                      1315400300050 
4.500000    0.1140E+03 0.7080E-02 0.2870E+02                      1315400300051 
4.500000    0.1170E+03 0.8430E-02 0.2390E+02                      1315400300052 
4.500000    0.1240E+03 0.7380E-02 0.2700E+02                      1315400300053 
4.500000    0.1320E+03 0.6350E-02 0.3140E+02                      1315400300054 
4.500000    0.1400E+03 0.6550E-02 0.3010E+02                      1315400300055 
4.500000    0.1450E+03 0.6740E-02 0.2850E+02                      1315400300056 
4.500000    0.1480E+03 0.4370E-02 0.4060E+02                      1315400300057 
4.500000    0.1550E+03 0.4740E-02 0.3960E+02                      1315400300058 
4.500000    0.1570E+03 0.4590E-02 0.3880E+02                      1315400300059 
5.000000    0.1820E+02 0.4140E-01 0.1000E+02                      1315400300060 
5.000000    0.2810E+02 0.4000E-01 0.1000E+02                      1315400300061 
5.000000    0.3140E+02 0.4110E-01 0.1000E+02                      1315400300062 
5.000000    0.3900E+02 0.3650E-01 0.1000E+02                      1315400300063 
5.000000    0.4700E+02 0.3400E-01 0.1000E+02                      1315400300064 
5.000000    0.5490E+02 0.2900E-01 0.1000E+02                      1315400300065 
5.000000    0.6240E+02 0.2780E-01 0.1000E+02                      1315400300066 
5.000000    0.7040E+02 0.2330E-01 0.1020E+02                      1315400300067 
5.000000    0.7790E+02 0.2180E-01 0.1060E+02                      1315400300068 
5.000000    0.8590E+02 0.2000E-01 0.1170E+02                      1315400300069 
5.000000    0.9330E+02 0.1850E-01 0.1220E+02                      1315400300070 
5.000000    0.1010E+03 0.1460E-01 0.1540E+02                      1315400300071 
5.000000    0.1090E+03 0.1310E-01 0.1650E+02                      1315400300072 
5.000000    0.1170E+03 0.1030E-01 0.2080E+02                      1315400300073 
5.000000    0.1240E+03 0.1060E-01 0.1960E+02                      1315400300074 
5.000000    0.1320E+03 0.8360E-02 0.2470E+02                      1315400300075 
5.000000    0.1400E+03 0.8530E-02 0.2420E+02                      1315400300076 
5.000000    0.1470E+03 0.7450E-02 0.2690E+02                      1315400300077 
5.000000    0.1500E+03 0.7010E-02 0.2760E+02                      1315400300078 
5.000000    0.1570E+03 0.6290E-02 0.3120E+02                      1315400300079 
5.500000    0.1820E+02 0.4940E-01 0.2000E+02                      1315400300080 
5.500000    0.2000E+02 0.4700E-01 0.1000E+02                      1315400300081 
5.500000    0.2110E+02 0.3990E-01 0.8000E+01                      1315400300082 
5.500000    0.2560E+02 0.4720E-01 0.1000E+02                      1315400300083 
5.500000    0.2610E+02 0.4620E-01 0.2000E+02                      1315400300084 
5.500000    0.2810E+02 0.4650E-01 0.2000E+02                      1315400300085 
5.500000    0.2900E+02 0.4270E-01 0.8000E+01                      1315400300086 
5.500000    0.2990E+02 0.4310E-01 0.1000E+02                      1315400300087 
5.500000    0.3130E+02 0.4190E-01 0.8000E+01                      1315400300088 
5.500000    0.3560E+02 0.4350E-01 0.1000E+02                      1315400300089 
5.500000    0.3600E+02 0.3980E-01 0.2000E+02                      1315400300090 
5.500000    0.3900E+02 0.3860E-01 0.8000E+01                      1315400300091 
5.500000    0.3980E+02 0.3900E-01 0.1000E+02                      1315400300092 
5.500000    0.4400E+02 0.3480E-01 0.2000E+02                      1315400300093 
5.500000    0.4650E+02 0.3150E-01 0.1000E+02                      1315400300094 
5.500000    0.4700E+02 0.3650E-01 0.2000E+02                      1315400300095 
5.500000    0.5190E+02 0.3490E-01 0.8000E+01                      1315400300096 
5.500000    0.5450E+02 0.2910E-01 0.1000E+02                      1315400300097 
5.500000    0.5490E+02 0.3420E-01 0.2000E+02                      1315400300098 
5.500000    0.5940E+02 0.2930E-01 0.2000E+02                      1315400300099 
5.500000    0.6190E+02 0.2880E-01 0.1000E+02                      1315400300100 
5.500000    0.6270E+02 0.2590E-01 0.1000E+02                      1315400300101 
5.500000    0.6740E+02 0.2720E-01 0.8000E+01                      1315400300102 
5.500000    0.6990E+02 0.2420E-01 0.1000E+02                      1315400300103 
5.500000    0.7040E+02 0.2450E-01 0.2000E+02                      1315400300104 
5.500000    0.7490E+02 0.2170E-01 0.8000E+01                      1315400300105 
5.500000    0.7740E+02 0.2220E-01 0.1000E+02                      1315400300106 
5.500000    0.7790E+02 0.2210E-01 0.2000E+02                      1315400300107 
5.500000    0.8240E+02 0.1940E-01 0.1000E+02                      1315400300108 
5.500000    0.8310E+02 0.2100E-01 0.2000E+02                      1315400300109 
5.500000    0.8580E+02 0.1930E-01 0.8000E+01                      1315400300110 
5.500000    0.8610E+02 0.1940E-01 0.1000E+02                      1315400300111 
5.500000    0.9030E+02 0.1850E-01 0.8000E+01                      1315400300112 
5.500000    0.9330E+02 0.1750E-01 0.8040E+01                      1315400300113 
5.500000    0.9790E+02 0.1770E-01 0.1000E+02                      1315400300114 
5.500000    0.9830E+02 0.1690E-01 0.2000E+02                      1315400300115 
5.500000    0.1010E+03 0.1560E-01 0.1000E+02                      1315400300116 
5.500000    0.1060E+03 0.1700E-01 0.8000E+01                      1315400300117 
5.500000    0.1080E+03 0.1610E-01 0.1000E+02                      1315400300118 
5.500000    0.1090E+03 0.1500E-01 0.2000E+02                      1315400300119 
5.500000    0.1130E+03 0.1470E-01 0.1020E+02                      1315400300120 
5.500000    0.1140E+03 0.1530E-01 0.8540E+01                      1315400300121 
5.500000    0.1170E+03 0.1510E-01 0.1000E+02                      1315400300122 
5.500000    0.1170E+03 0.1430E-01 0.2000E+02                      1315400300123 
5.500000    0.1210E+03 0.1220E-01 0.1050E+02                      1315400300124 
5.500000    0.1240E+03 0.1310E-01 0.1150E+02                      1315400300125 
5.500000    0.1240E+03 0.1150E-01 0.1100E+02                      1315400300126 
5.500000    0.1290E+03 0.1060E-01 0.1180E+02                      1315400300127 
5.500000    0.1320E+03 0.1280E-01 0.1000E+02                      1315400300128 
5.500000    0.1320E+03 0.1190E-01 0.2100E+02                      1315400300129 
5.500000    0.1370E+03 0.1060E-01 0.1210E+02                      1315400300130 
5.500000    0.1390E+03 0.1070E-01 0.1400E+02                      1315400300131 
5.500000    0.1400E+03 0.9860E-02 0.1290E+02                      1315400300132 
5.500000    0.1440E+03 0.1040E-01 0.1440E+02                      1315400300133 
5.500000    0.1450E+03 0.1040E-01 0.2300E+02                      1315400300134 
5.500000    0.1470E+03 0.9840E-02 0.1520E+02                      1315400300135 
5.500000    0.1480E+03 0.8540E-02 0.1440E+02                      1315400300136 
5.500000    0.1500E+03 0.1130E-01 0.2250E+02                      1315400300137 
5.500000    0.1510E+03 0.1160E-01 0.1000E+02                      1315400300138 
5.500000    0.1550E+03 0.1010E-01 0.2250E+02                      1315400300139 
5.500000    0.1570E+03 0.9260E-02 0.2550E+02                      1315400300140 
5.899000    0.1730E+02 0.4080E-01 0.1200E+02                      1315400300141 
5.899000    0.2010E+02 0.4470E-01 0.1000E+02                      1315400300142 
5.899000    0.2110E+02 0.4460E-01 0.8000E+01                      1315400300143 
5.899000    0.2610E+02 0.4200E-01 0.8000E+01                      1315400300144 
5.899000    0.2800E+02 0.4630E-01 0.8000E+01                      1315400300145 
5.899000    0.2900E+02 0.4000E-01 0.8000E+01                      1315400300146 
5.899000    0.3010E+02 0.3330E-01 0.1200E+02                      1315400300147 
5.899000    0.3510E+02 0.3220E-01 0.1200E+02                      1315400300148 
5.899000    0.3810E+02 0.3190E-01 0.1200E+02                      1315400300149 
5.899000    0.4000E+02 0.3310E-01 0.1000E+02                      1315400300150 
5.899000    0.4390E+02 0.3260E-01 0.8000E+01                      1315400300151 
5.899000    0.4640E+02 0.3020E-01 0.1000E+02                      1315400300152 
5.899000    0.5100E+02 0.2540E-01 0.1200E+02                      1315400300153 
5.899000    0.5400E+02 0.2670E-01 0.1200E+02                      1315400300154 
5.899000    0.5580E+02 0.2730E-01 0.1000E+02                      1315400300155 
5.899000    0.5940E+02 0.2450E-01 0.8000E+01                      1315400300156 
5.899000    0.6240E+02 0.2480E-01 0.8000E+01                      1315400300157 
5.899000    0.6740E+02 0.2670E-01 0.8000E+01                      1315400300158 
5.899000    0.7030E+02 0.2500E-01 0.8000E+01                      1315400300159 
5.899000    0.7400E+02 0.2290E-01 0.1200E+02                      1315400300160 
5.899000    0.7690E+02 0.1830E-01 0.1200E+02                      1315400300161 
5.899000    0.7880E+02 0.2600E-01 0.1000E+02                      1315400300162 
5.899000    0.8490E+02 0.1860E-01 0.1200E+02                      1315400300163 
5.899000    0.8620E+02 0.2070E-01 0.1000E+02                      1315400300164 
5.899000    0.9030E+02 0.1890E-01 0.8200E+01                      1315400300165 
5.899000    0.9330E+02 0.1810E-01 0.8480E+01                      1315400300166 
5.899000    0.9740E+02 0.1670E-01 0.1200E+02                      1315400300167 
5.899000    0.1000E+03 0.1740E-01 0.1200E+02                      1315400300168 
5.899000    0.1010E+03 0.1710E-01 0.8640E+01                      1315400300169 
5.899000    0.1060E+03 0.1620E-01 0.8970E+01                      1315400300170 
5.899000    0.1090E+03 0.1760E-01 0.1000E+02                      1315400300171 
5.899000    0.1130E+03 0.1320E-01 0.1200E+02                      1315400300172 
5.899000    0.1160E+03 0.1350E-01 0.1200E+02                      1315400300173 
5.899000    0.1170E+03 0.1460E-01 0.9420E+01                      1315400300174 
5.899000    0.1210E+03 0.1310E-01 0.1020E+02                      1315400300175 
5.899000    0.1240E+03 0.1270E-01 0.1040E+02                      1315400300176 
5.899000    0.1280E+03 0.1060E-01 0.1200E+02                      1315400300177 
5.899000    0.1310E+03 0.1140E-01 0.1200E+02                      1315400300178 
5.899000    0.1320E+03 0.1100E-01 0.1170E+02                      1315400300179 
5.899000    0.1370E+03 0.1000E-01 0.1230E+02                      1315400300180 
5.899000    0.1400E+03 0.9820E-02 0.1290E+02                      1315400300181 
5.899000    0.1440E+03 0.1240E-01 0.1200E+02                      1315400300182 
5.899000    0.1460E+03 0.1190E-01 0.1200E+02                      1315400300183 
5.899000    0.1470E+03 0.1110E-01 0.1200E+02                      1315400300184 
5.899000    0.1480E+03 0.9930E-02 0.1230E+02                      1315400300185 
5.899000    0.1500E+03 0.9480E-02 0.1300E+02                      1315400300186 
5.899000    0.1540E+03 0.1100E-01 0.1200E+02                      1315400300187 
5.899000    0.1570E+03 0.1010E-01 0.1490E+02                      1315400300188 
5.899000    0.1570E+03 0.8070E-02 0.1510E+02                      1315400300189 
6.500000    0.1730E+02 0.3460E-01 0.1000E+02                      1315400300190 
6.500000    0.2020E+02 0.3740E-01 0.8000E+01                      1315400300191 
6.500000    0.2520E+02 0.3660E-01 0.1000E+02                      1315400300192 
6.500000    0.2610E+02 0.3400E-01 0.8000E+01                      1315400300193 
6.500000    0.2810E+02 0.3410E-01 0.1000E+02                      1315400300194 
6.500000    0.3010E+02 0.3030E-01 0.1000E+02                      1315400300195 
6.500000    0.3130E+02 0.3640E-01 0.8000E+01                      1315400300196 
6.500000    0.3510E+02 0.3230E-01 0.8000E+01                      1315400300197 
6.500000    0.3810E+02 0.2890E-01 0.1000E+02                      1315400300198 
6.500000    0.4300E+02 0.2730E-01 0.1000E+02                      1315400300199 
6.500000    0.4600E+02 0.2860E-01 0.1000E+02                      1315400300200 
6.500000    0.4690E+02 0.2780E-01 0.8000E+01                      1315400300201 
6.500000    0.5100E+02 0.2650E-01 0.8000E+01                      1315400300202 
6.500000    0.5400E+02 0.2390E-01 0.1000E+02                      1315400300203 
6.500000    0.5850E+02 0.2200E-01 0.1000E+02                      1315400300204 
6.500000    0.6150E+02 0.2310E-01 0.1000E+02                      1315400300205 
6.500000    0.6300E+02 0.2480E-01 0.8000E+01                      1315400300206 
6.500000    0.6740E+02 0.2320E-01 0.8000E+01                      1315400300207 
6.500000    0.6940E+02 0.2190E-01 0.1000E+02                      1315400300208 
6.500000    0.7390E+02 0.1980E-01 0.1000E+02                      1315400300209 
6.500000    0.7690E+02 0.2120E-01 0.1000E+02                      1315400300210 
6.500000    0.7890E+02 0.2340E-01 0.8000E+01                      1315400300211 
6.500000    0.8300E+02 0.2110E-01 0.8160E+01                      1315400300212 
6.500000    0.8490E+02 0.2300E-01 0.8000E+01                      1315400300213 
6.500000    0.8940E+02 0.1760E-01 0.1000E+02                      1315400300214 
6.500000    0.9240E+02 0.2030E-01 0.1000E+02                      1315400300215 
6.500000    0.9450E+02 0.2000E-01 0.8000E+01                      1315400300216 
6.500000    0.9830E+02 0.1970E-01 0.8840E+01                      1315400300217 
6.500000    0.1010E+03 0.1970E-01 0.8980E+01                      1315400300218 
6.500000    0.1050E+03 0.1830E-01 0.1000E+02                      1315400300219 
6.500000    0.1080E+03 0.1570E-01 0.1000E+02                      1315400300220 
6.500000    0.1100E+03 0.1790E-01 0.8380E+01                      1315400300221 
6.500000    0.1140E+03 0.1890E-01 0.9030E+01                      1315400300222 
6.500000    0.1160E+03 0.1870E-01 0.8020E+01                      1315400300223 
6.500000    0.1200E+03 0.1580E-01 0.1000E+02                      1315400300224 
6.500000    0.1230E+03 0.1480E-01 0.1000E+02                      1315400300225 
6.500000    0.1250E+03 0.1580E-01 0.9490E+01                      1315400300226 
6.500000    0.1290E+03 0.1270E-01 0.1150E+02                      1315400300227 
6.500000    0.1320E+03 0.1390E-01 0.1080E+02                      1315400300228 
6.500000    0.1360E+03 0.1310E-01 0.1000E+02                      1315400300229 
6.500000    0.1390E+03 0.1300E-01 0.1000E+02                      1315400300230 
6.500000    0.1420E+03 0.1200E-01 0.1250E+02                      1315400300231 
6.500000    0.1450E+03 0.1120E-01 0.1210E+02                      1315400300232 
6.500000    0.1470E+03 0.1170E-01 0.1000E+02                      1315400300233 
6.500000    0.1480E+03 0.1100E-01 0.1360E+02                      1315400300234 
6.500000    0.1490E+03 0.1130E-01 0.1000E+02                      1315400300235 
6.500000    0.1520E+03 0.1110E-01 0.1350E+02                      1315400300236 
6.500000    0.1550E+03 0.1000E-01 0.1280E+02                      1315400300237 
6.500000    0.1570E+03 0.9090E-02 0.1420E+02                      1315400300238 
7.140000    0.1780E+02 0.3760E-01 0.8000E+01                      1315400300239 
7.140000    0.1970E+02 0.3480E-01 0.8000E+01                      1315400300240 
7.140000    0.2110E+02 0.3520E-01 0.8000E+01                      1315400300241 
7.140000    0.2560E+02 0.3370E-01 0.8000E+01                      1315400300242 
7.140000    0.2760E+02 0.3280E-01 0.8000E+01                      1315400300243 
7.140000    0.2860E+02 0.3270E-01 0.8000E+01                      1315400300244 
7.140000    0.2960E+02 0.3090E-01 0.8000E+01                      1315400300245 
7.140000    0.3130E+02 0.3190E-01 0.8000E+01                      1315400300246 
7.140000    0.3560E+02 0.2990E-01 0.8000E+01                      1315400300247 
7.140000    0.3850E+02 0.2920E-01 0.8000E+01                      1315400300248 
7.140000    0.4350E+02 0.2850E-01 0.8000E+01                      1315400300249 
7.140000    0.4500E+02 0.2500E-01 0.8000E+01                      1315400300250 
7.140000    0.4690E+02 0.2620E-01 0.8000E+01                      1315400300251 
7.140000    0.5190E+02 0.2370E-01 0.8000E+01                      1315400300252 
7.140000    0.5450E+02 0.2470E-01 0.8000E+01                      1315400300253 
7.140000    0.5890E+02 0.2340E-01 0.8000E+01                      1315400300254 
7.140000    0.6050E+02 0.2290E-01 0.8000E+01                      1315400300255 
7.140000    0.6240E+02 0.2210E-01 0.8000E+01                      1315400300256 
7.140000    0.6740E+02 0.2130E-01 0.8000E+01                      1315400300257 
7.140000    0.6990E+02 0.2170E-01 0.8000E+01                      1315400300258 
7.140000    0.7440E+02 0.2200E-01 0.8000E+01                      1315400300259 
7.140000    0.7610E+02 0.2240E-01 0.8000E+01                      1315400300260 
7.140000    0.7780E+02 0.2140E-01 0.8000E+01                      1315400300261 
7.140000    0.8300E+02 0.1980E-01 0.8000E+01                      1315400300262 
7.140000    0.8540E+02 0.2210E-01 0.8000E+01                      1315400300263 
7.140000    0.8990E+02 0.2100E-01 0.8000E+01                      1315400300264 
7.140000    0.9140E+02 0.2130E-01 0.8000E+01                      1315400300265 
7.140000    0.9330E+02 0.2030E-01 0.8030E+01                      1315400300266 
7.140000    0.9830E+02 0.1930E-01 0.8630E+01                      1315400300267 
7.140000    0.1010E+03 0.1850E-01 0.8960E+01                      1315400300268 
7.140000    0.1050E+03 0.2020E-01 0.8000E+01                      1315400300269 
7.140000    0.1070E+03 0.2080E-01 0.8000E+01                      1315400300270 
7.140000    0.1090E+03 0.1770E-01 0.9280E+01                      1315400300271 
7.140000    0.1140E+03 0.1690E-01 0.9990E+01                      1315400300272 
7.140000    0.1160E+03 0.1840E-01 0.8150E+01                      1315400300273 
7.140000    0.1210E+03 0.1470E-01 0.1120E+02                      1315400300274 
7.140000    0.1240E+03 0.1390E-01 0.1180E+02                      1315400300275 
7.140000    0.1290E+03 0.1350E-01 0.1210E+02                      1315400300276 
7.140000    0.1310E+03 0.1580E-01 0.8000E+01                      1315400300277 
7.140000    0.1320E+03 0.1490E-01 0.1010E+02                      1315400300278 
7.140000    0.1390E+03 0.1260E-01 0.1190E+02                      1315400300279 
7.140000    0.1440E+03 0.1130E-01 0.1330E+02                      1315400300280 
7.140000    0.1460E+03 0.1230E-01 0.1220E+02                      1315400300281 
7.140000    0.1470E+03 0.1270E-01 0.1290E+02                      1315400300282 
7.140000    0.1480E+03 0.1190E-01 0.1380E+02                      1315400300283 
7.140000    0.1500E+03 0.1310E-01 0.1280E+02                      1315400300284 
7.140000    0.1540E+03 0.1090E-01 0.1380E+02                      1315400300285 
7.140000    0.1570E+03 0.1090E-01 0.1460E+02                      1315400300286 
7.500000    0.1680E+02 0.3280E-01 0.8000E+01                      1315400300287 
7.500000    0.2020E+02 0.3170E-01 0.1000E+02                      1315400300288 
7.500000    0.2530E+02 0.3360E-01 0.1500E+02                      1315400300289 
7.500000    0.2610E+02 0.2960E-01 0.8000E+01                      1315400300290 
7.500000    0.2760E+02 0.3180E-01 0.8010E+01                      1315400300291 
7.500000    0.2900E+02 0.2920E-01 0.8000E+01                      1315400300292 
7.500000    0.3020E+02 0.2690E-01 0.1500E+02                      1315400300293 
7.500000    0.3520E+02 0.2840E-01 0.1500E+02                      1315400300294 
7.500000    0.3600E+02 0.2740E-01 0.8000E+01                      1315400300295 
7.500000    0.4250E+02 0.2560E-01 0.8010E+01                      1315400300296 
7.500000    0.4660E+02 0.2270E-01 0.1500E+02                      1315400300297 
7.500000    0.5110E+02 0.2210E-01 0.1500E+02                      1315400300298 
7.500000    0.5480E+02 0.2280E-01 0.1000E+02                      1315400300299 
7.500000    0.5800E+02 0.1960E-01 0.8010E+01                      1315400300300 
7.500000    0.6100E+02 0.2120E-01 0.1000E+02                      1315400300301 
7.500000    0.6310E+02 0.1860E-01 0.1500E+02                      1315400300302 
7.500000    0.6810E+02 0.1920E-01 0.1500E+02                      1315400300303 
7.500000    0.7030E+02 0.1950E-01 0.8000E+01                      1315400300304 
7.500000    0.7490E+02 0.1910E-01 0.8000E+01                      1315400300305 
7.500000    0.7780E+02 0.1890E-01 0.8000E+01                      1315400300306 
7.500000    0.8500E+02 0.1880E-01 0.1500E+02                      1315400300307 
7.500000    0.8580E+02 0.1830E-01 0.8280E+01                      1315400300308 
7.500000    0.9030E+02 0.1870E-01 0.8260E+01                      1315400300309 
7.500000    0.9330E+02 0.1850E-01 0.8430E+01                      1315400300310 
7.500000    0.9830E+02 0.1780E-01 0.8900E+01                      1315400300311 
7.500000    0.1010E+03 0.1890E-01 0.8440E+01                      1315400300312 
7.500000    0.1010E+03 0.1900E-01 0.1000E+02                      1315400300313 
7.500000    0.1060E+03 0.1780E-01 0.9010E+01                      1315400300314 
7.500000    0.1100E+03 0.1640E-01 0.1500E+02                      1315400300315 
7.500000    0.1160E+03 0.1630E-01 0.1500E+02                      1315400300316 
7.500000    0.1170E+03 0.1700E-01 0.9630E+01                      1315400300317 
7.500000    0.1210E+03 0.1540E-01 0.1050E+02                      1315400300318 
7.500000    0.1240E+03 0.1450E-01 0.1130E+02                      1315400300319 
7.500000    0.1290E+03 0.1310E-01 0.1210E+02                      1315400300320 
7.500000    0.1320E+03 0.1250E-01 0.1280E+02                      1315400300321 
7.500000    0.1350E+03 0.1270E-01 0.8020E+01                      1315400300322 
7.500000    0.1400E+03 0.1120E-01 0.1430E+02                      1315400300323 
7.500000    0.1450E+03 0.1010E-01 0.1570E+02                      1315400300324 
7.500000    0.1460E+03 0.9620E-02 0.8040E+01                      1315400300325 
7.500000    0.1480E+03 0.9600E-02 0.1630E+02                      1315400300326 
7.500000    0.1500E+03 0.9760E-02 0.1590E+02                      1315400300327 
7.500000    0.1550E+03 0.9010E-02 0.1660E+02                      1315400300328 
7.500000    0.1570E+03 0.7950E-02 0.1920E+02                      1315400300329 
8.029000    0.1820E+02 0.3290E-01 0.8000E+01                      1315400300330 
8.029000    0.2520E+02 0.3050E-01 0.1000E+02                      1315400300331 
8.029000    0.2800E+02 0.3140E-01 0.8000E+01                      1315400300332 
8.029000    0.2990E+02 0.2690E-01 0.1000E+02                      1315400300333 
8.029000    0.3520E+02 0.2580E-01 0.1000E+02                      1315400300334 
8.029000    0.3900E+02 0.2770E-01 0.8000E+01                      1315400300335 
8.029000    0.4530E+02 0.2570E-01 0.1000E+02                      1315400300336 
8.029000    0.5190E+02 0.2200E-01 0.8000E+01                      1315400300337 
8.029000    0.5490E+02 0.2140E-01 0.8000E+01                      1315400300338 
8.029000    0.6090E+02 0.2080E-01 0.1000E+02                      1315400300339 
8.029000    0.6740E+02 0.1880E-01 0.8080E+01                      1315400300340 
8.029000    0.7030E+02 0.1890E-01 0.8010E+01                      1315400300341 
8.029000    0.7780E+02 0.1870E-01 0.8090E+01                      1315400300342 
8.029000    0.8520E+02 0.1720E-01 0.1000E+02                      1315400300343 
8.029000    0.9030E+02 0.1780E-01 0.8370E+01                      1315400300344 
8.029000    0.9330E+02 0.1640E-01 0.9090E+01                      1315400300345 
8.029000    0.1000E+03 0.1530E-01 0.1000E+02                      1315400300346 
8.029000    0.1060E+03 0.1570E-01 0.9420E+01                      1315400300347 
8.029000    0.1090E+03 0.1630E-01 0.9140E+01                      1315400300348 
8.029000    0.1170E+03 0.1500E-01 0.1010E+02                      1315400300349 
8.029000    0.1230E+03 0.1550E-01 0.1000E+02                      1315400300350 
8.029000    0.1290E+03 0.1230E-01 0.1220E+02                      1315400300351 
8.029000    0.1320E+03 0.1240E-01 0.1240E+02                      1315400300352 
8.029000    0.1400E+03 0.1130E-01 0.1320E+02                      1315400300353 
8.029000    0.1450E+03 0.9660E-02 0.1550E+02                      1315400300354 
8.029000    0.1470E+03 0.9410E-02 0.1570E+02                      1315400300355 
8.029000    0.1500E+03 0.8910E-02 0.1610E+02                      1315400300356 
8.029000    0.1550E+03 0.6990E-02 0.2010E+02                      1315400300357 
8.029000    0.1570E+03 0.7470E-02 0.1860E+02                      1315400300358 
8.399999    0.1890E+02 0.3160E-01 0.1000E+02                      1315400300359 
8.399999    0.2180E+02 0.3530E-01 0.1000E+02                      1315400300360 
8.399999    0.2680E+02 0.3170E-01 0.1000E+02                      1315400300361 
8.399999    0.2970E+02 0.2840E-01 0.1000E+02                      1315400300362 
8.399999    0.3490E+02 0.2940E-01 0.1000E+02                      1315400300363 
8.399999    0.3970E+02 0.3080E-01 0.1000E+02                      1315400300364 
8.399999    0.4760E+02 0.2610E-01 0.1000E+02                      1315400300365 
8.399999    0.5560E+02 0.2370E-01 0.1000E+02                      1315400300366 
8.399999    0.6060E+02 0.1940E-01 0.1000E+02                      1315400300367 
8.399999    0.6810E+02 0.1980E-01 0.1010E+02                      1315400300368 
8.399999    0.7100E+02 0.1630E-01 0.1230E+02                      1315400300369 
8.399999    0.7620E+02 0.1630E-01 0.1000E+02                      1315400300370 
8.399999    0.8350E+02 0.1630E-01 0.1220E+02                      1315400300371 
8.399999    0.8650E+02 0.1520E-01 0.1310E+02                      1315400300372 
8.399999    0.9150E+02 0.1500E-01 0.1000E+02                      1315400300373 
8.399999    0.9900E+02 0.1630E-01 0.1210E+02                      1315400300374 
8.399999    0.1020E+03 0.1630E-01 0.1190E+02                      1315400300375 
8.399999    0.1070E+03 0.1490E-01 0.1000E+02                      1315400300376 
8.399999    0.1140E+03 0.1350E-01 0.1470E+02                      1315400300377 
8.399999    0.1170E+03 0.1330E-01 0.1500E+02                      1315400300378 
8.399999    0.1220E+03 0.1270E-01 0.1000E+02                      1315400300379 
8.399999    0.1300E+03 0.1270E-01 0.1570E+02                      1315400300380 
8.399999    0.1330E+03 0.1170E-01 0.1720E+02                      1315400300381 
8.399999    0.1400E+03 0.9530E-02 0.2070E+02                      1315400300382 
8.399999    0.1450E+03 0.9590E-02 0.2030E+02                      1315400300383 
8.399999    0.1470E+03 0.8830E-02 0.2190E+02                      1315400300384 
8.399999    0.1500E+03 0.7600E-02 0.2500E+02                      1315400300385 
8.399999    0.1550E+03 0.6690E-02 0.2770E+02                      1315400300386 
8.399999    0.1580E+03 0.7280E-02 0.2510E+02                      1315400300387 
9.059999    0.1890E+02 0.2420E-01 0.8920E+01                      1315400300388 
9.059999    0.2680E+02 0.2830E-01 0.7370E+01                      1315400300389 
9.059999    0.2870E+02 0.2240E-01 0.9370E+01                      1315400300390 
9.059999    0.2970E+02 0.2340E-01 0.8940E+01                      1315400300391 
9.059999    0.3200E+02 0.2160E-01 0.9560E+01                      1315400300392 
9.059999    0.3670E+02 0.2750E-01 0.7520E+01                      1315400300393 
9.059999    0.3970E+02 0.2270E-01 0.9240E+01                      1315400300394 
9.059999    0.4460E+02 0.2480E-01 0.8370E+01                      1315400300395 
9.059999    0.4760E+02 0.2210E-01 0.9290E+01                      1315400300396 
9.059999    0.5260E+02 0.2450E-01 0.8460E+01                      1315400300397 
9.059999    0.5560E+02 0.2130E-01 0.9570E+01                      1315400300398 
9.059999    0.6010E+02 0.1790E-01 0.1130E+02                      1315400300399 
9.059999    0.6310E+02 0.1820E-01 0.1120E+02                      1315400300400 
9.059999    0.6810E+02 0.1550E-01 0.1310E+02                      1315400300401 
9.059999    0.7100E+02 0.1400E-01 0.1450E+02                      1315400300402 
9.059999    0.7600E+02 0.1470E-01 0.1370E+02                      1315400300403 
9.059999    0.7850E+02 0.1770E-01 0.1140E+02                      1315400300404 
9.059999    0.8350E+02 0.1570E-01 0.1290E+02                      1315400300405 
9.059999    0.8650E+02 0.1390E-01 0.1430E+02                      1315400300406 
9.059999    0.9100E+02 0.1430E-01 0.1390E+02                      1315400300407 
9.059999    0.9400E+02 0.1280E-01 0.1560E+02                      1315400300408 
9.059999    0.9900E+02 0.1190E-01 0.1640E+02                      1315400300409 
9.059999    0.1020E+03 0.1240E-01 0.1570E+02                      1315400300410 
9.059999    0.1060E+03 0.1120E-01 0.1740E+02                      1315400300411 
9.059999    0.1100E+03 0.1200E-01 0.1590E+02                      1315400300412 
9.059999    0.1140E+03 0.1080E-01 0.1780E+02                      1315400300413 
9.059999    0.1170E+03 0.1090E-01 0.1780E+02                      1315400300414 
9.059999    0.1220E+03 0.1070E-01 0.1800E+02                      1315400300415 
9.059999    0.1250E+03 0.9880E-02 0.1930E+02                      1315400300416 
9.059999    0.1300E+03 0.9520E-02 0.2040E+02                      1315400300417 
9.059999    0.1330E+03 0.8380E-02 0.2240E+02                      1315400300418 
9.059999    0.1370E+03 0.7900E-02 0.2410E+02                      1315400300419 
9.059999    0.1400E+03 0.7490E-02 0.2510E+02                      1315400300420 
9.059999    0.1450E+03 0.7390E-02 0.2450E+02                      1315400300421 
9.059999    0.1470E+03 0.6950E-02 0.2620E+02                      1315400300422 
9.059999    0.1480E+03 0.5870E-02 0.3130E+02                      1315400300423 
9.059999    0.1500E+03 0.7690E-02 0.2350E+02                      1315400300424 
9.059999    0.1550E+03 0.6480E-02 0.2620E+02                      1315400300425 
9.059999    0.1580E+03 0.5860E-02 0.2820E+02                      1315400300426 
9.500000    0.1890E+02 0.2130E-01 0.8000E+01                      1315400300427 
9.500000    0.2530E+02 0.2440E-01 0.1000E+02                      1315400300428 
9.500000    0.2680E+02 0.2020E-01 0.8000E+01                      1315400300429 
9.500000    0.2970E+02 0.2190E-01 0.8000E+01                      1315400300430 
9.500000    0.3090E+02 0.1970E-01 0.1270E+02                      1315400300431 
9.500000    0.3520E+02 0.2160E-01 0.1000E+02                      1315400300432 
9.500000    0.3670E+02 0.2280E-01 0.8000E+01                      1315400300433 
9.500000    0.4460E+02 0.2290E-01 0.8000E+01                      1315400300434 
9.500000    0.4760E+02 0.2370E-01 0.8000E+01                      1315400300435 
9.500000    0.5150E+02 0.2060E-01 0.1210E+02                      1315400300436 
9.500000    0.5560E+02 0.1990E-01 0.8000E+01                      1315400300437 
9.500000    0.6010E+02 0.1910E-01 0.8000E+01                      1315400300438 
9.500000    0.6310E+02 0.1340E-01 0.1000E+02                      1315400300439 
9.500000    0.6700E+02 0.1540E-01 0.1620E+02                      1315400300440 
9.500000    0.6810E+02 0.1590E-01 0.8000E+01                      1315400300441 
9.500000    0.7450E+02 0.1470E-01 0.1700E+02                      1315400300442 
9.500000    0.7900E+02 0.1210E-01 0.1000E+02                      1315400300443 
9.500000    0.8350E+02 0.1330E-01 0.8000E+01                      1315400300444 
9.500000    0.8650E+02 0.1240E-01 0.8000E+01                      1315400300445 
9.500000    0.9100E+02 0.1190E-01 0.8300E+01                      1315400300446 
9.500000    0.9400E+02 0.1210E-01 0.8130E+01                      1315400300447 
9.500000    0.9900E+02 0.9500E-02 0.1010E+02                      1315400300448 
9.500000    0.1020E+03 0.1040E-01 0.9060E+01                      1315400300449 
9.500000    0.1060E+03 0.1020E-01 0.9660E+01                      1315400300450 
9.500000    0.1100E+03 0.8810E-02 0.1130E+02                      1315400300451 
9.500000    0.1130E+03 0.1050E-01 0.2380E+02                      1315400300452 
9.500000    0.1160E+03 0.9730E-02 0.1030E+02                      1315400300453 
9.500000    0.1210E+03 0.8160E-02 0.3060E+02                      1315400300454 
9.500000    0.1240E+03 0.7930E-02 0.3150E+02                      1315400300455 
9.500000    0.1250E+03 0.8520E-02 0.1110E+02                      1315400300456 
9.500000    0.1300E+03 0.7860E-02 0.1200E+02                      1315400300457 
9.500000    0.1330E+03 0.7640E-02 0.1240E+02                      1315400300458 
9.500000    0.1370E+03 0.6640E-02 0.1440E+02                      1315400300459 
9.500000    0.1400E+03 0.5970E-02 0.1550E+02                      1315400300460 
9.500000    0.1450E+03 0.6220E-02 0.1430E+02                      1315400300461 
9.500000    0.1460E+03 0.7300E-02 0.3420E+02                      1315400300462 
9.500000    0.1480E+03 0.6830E-02 0.1460E+02                      1315400300463 
9.500000    0.1500E+03 0.6170E-02 0.1420E+02                      1315400300464 
9.500000    0.1540E+03 0.7740E-02 0.3230E+02                      1315400300465 
9.990000    0.1820E+02 0.3080E-01 0.8000E+01                      1315400300466 
9.990000    0.2070E+02 0.3100E-01 0.1000E+02                      1315400300467 
9.990000    0.2170E+02 0.2930E-01 0.6830E+01                      1315400300468 
9.990000    0.2470E+02 0.2420E-01 0.8270E+01                      1315400300469 
9.990000    0.2800E+02 0.2670E-01 0.8000E+01                      1315400300470 
9.990000    0.2900E+02 0.2730E-01 0.8000E+01                      1315400300471 
9.990000    0.3130E+02 0.2800E-01 0.8000E+01                      1315400300472 
9.990000    0.3310E+02 0.2500E-01 0.1000E+02                      1315400300473 
9.990000    0.3600E+02 0.2670E-01 0.8000E+01                      1315400300474 
9.990000    0.3900E+02 0.2970E-01 0.8000E+01                      1315400300475 
9.990000    0.4600E+02 0.2600E-01 0.7710E+01                      1315400300476 
9.990000    0.4690E+02 0.2640E-01 0.8000E+01                      1315400300477 
9.990000    0.5190E+02 0.2480E-01 0.8000E+01                      1315400300478 
9.990000    0.5940E+02 0.2140E-01 0.8000E+01                      1315400300479 
9.990000    0.6240E+02 0.2170E-01 0.8000E+01                      1315400300480 
9.990000    0.6300E+02 0.1950E-01 0.1030E+02                      1315400300481 
9.990000    0.6740E+02 0.1960E-01 0.8000E+01                      1315400300482 
9.990000    0.6990E+02 0.1710E-01 0.1000E+02                      1315400300483 
9.990000    0.7490E+02 0.1600E-01 0.9620E+01                      1315400300484 
9.990000    0.7780E+02 0.1710E-01 0.9030E+01                      1315400300485 
9.990000    0.8300E+02 0.1510E-01 0.1010E+02                      1315400300486 
9.990000    0.8580E+02 0.1390E-01 0.1100E+02                      1315400300487 
9.990000    0.9290E+02 0.1320E-01 0.1520E+02                      1315400300488 
9.990000    0.9540E+02 0.1350E-01 0.1110E+02                      1315400300489 
9.990000    0.1010E+03 0.1250E-01 0.1200E+02                      1315400300490 
9.990000    0.1060E+03 0.1260E-01 0.1180E+02                      1315400300491 
9.990000    0.1090E+03 0.1040E-01 0.1920E+02                      1315400300492 
9.990000    0.1090E+03 0.1030E-01 0.1950E+02                      1315400300493 
9.990000    0.1140E+03 0.1210E-01 0.1240E+02                      1315400300494 
9.990000    0.1160E+03 0.1000E-01 0.2000E+02                      1315400300495 
9.990000    0.1210E+03 0.1070E-01 0.1370E+02                      1315400300496 
9.990000    0.1240E+03 0.9750E-02 0.1470E+02                      1315400300497 
9.990000    0.1260E+03 0.9060E-02 0.1650E+02                      1315400300498 
9.990000    0.1290E+03 0.8880E-02 0.1620E+02                      1315400300499 
9.990000    0.1370E+03 0.8420E-02 0.1720E+02                      1315400300500 
9.990000    0.1400E+03 0.7580E-02 0.1910E+02                      1315400300501 
9.990000    0.1420E+03 0.7680E-02 0.1950E+02                      1315400300502 
9.990000    0.1450E+03 0.7150E-02 0.1960E+02                      1315400300503 
9.990000    0.1470E+03 0.7070E-02 0.1920E+02                      1315400300504 
9.990000    0.1490E+03 0.7090E-02 0.2820E+02                      1315400300505 
9.990000    0.1510E+03 0.6250E-02 0.3190E+02                      1315400300506 
9.990000    0.1540E+03 0.6000E-02 0.3330E+02                      1315400300507 
9.990000    0.1570E+03 0.6390E-02 0.2350E+02                      1315400300508 
ENDDATA            476          0                                 1315400300509 
ENDSUBENT          508          0                                 1315400399999 
SUBENT        13154004   20120711                             13841315400400001 
BIB                 11         17                                 1315400400002 
REACTION   (4-BE-9(N,EL)4-BE-9,,SIG)                              1315400400003 
INC-SOURCE (D-D)                                                  1315400400004 
ANALYSIS   (INTAD)                                                1315400400005 
DETECTOR   (SCIN) Liquid scintillation detectors                  1315400400006 
MONITOR    (1-H-1(N,EL)1-H-1,,DA)                                 1315400400007 
MONIT-REF  (,H.Konde+,R,IAEA-TECDOC-227,1983)                     1315400400008 
REL-REF    (I,,A.B.Smith+,J,NIM,50,277,1967) - Description of     1315400400009 
            multi-angle fast neutron time-of-flight system        1315400400010 
CORRECTION Corrected for: multiple scattering                     1315400400011 
                          beam attenuation                        1315400400012 
                          angular resolution                      1315400400013 
ERR-ANALYS (DATA-ERR) The uncertainties associated with the angle-1315400400014 
           integrated elastic scattering cross sections were      1315400400015 
           believed to be ~2.5%.                                  1315400400016 
COMMENT    Multiple measurements at same energy                   1315400400017 
STATUS     (DEP,13154002)                                         1315400400018 
           (TABLE) data taken from table 1 in NSE,103,37,1989     1315400400019 
ENDBIB              17          0                                 1315400400020 
COMMON               2          3                                 1315400400021 
EN-ERR     DATA-ERR                                               1315400400022 
KEV        PER-CENT                                               1315400400023 
 10.        2.5                                                   1315400400024 
ENDCOMMON            3          0                                 1315400400025 
DATA                 2         12                                 1315400400026 
EN         DATA                                                   1315400400027 
MEV        B                                                      1315400400028 
 4.5        1.370                                                 1315400400029 
 5.0        1.300                                                 1315400400030 
 5.5        1.215                                                 1315400400031 
 5.9        1.200                                                 1315400400032 
 6.5        1.150                                                 1315400400033 
 7.14       1.120                                                 1315400400034 
 7.5        1.100                                                 1315400400035 
 8.03       1.145                                                 1315400400036 
 8.4        1.155                                                 1315400400037 
 9.06       1.150                                                 1315400400038 
 9.5        1.145                                                 1315400400039 
10.0        1.140                                                 1315400400040 
ENDDATA             14          0                                 1315400400041 
ENDSUBENT           40          0                                 1315400499999 
SUBENT        13154005   20120711                             13841315400500001 
BIB                  8         18                                 1315400500002 
REACTION   (4-BE-9(N,INL)4-BE-9,PAR,SIG)                          1315400500003 
INC-SOURCE (D-D)                                                  1315400500004 
DETECTOR   (SCIN) Liquid scintillation detectors                  1315400500005 
REL-REF    (I,,A.B.Smith+,J,NIM,50,277,1967) - Description of     1315400500006 
            multi-angle fast neutron time-of-flight system        1315400500007 
CORRECTION Corrected for: multiple scattering                     1315400500008 
                          beam attenuation                        1315400500009 
                          angular resolution                      1315400500010 
ERR-ANALYS (DATA-ERR) Estimated uncertainties are 10%, reflecting 1315400500011 
           mentioned in the article subjective estimates relevant 1315400500012 
           to the summing procedures. Statistical and other error 1315400500013 
           sources are generally much smaller, and the angle-     1315400500014 
           integrated values obtained from results of different   1315400500015 
           measurement periods are generally consistent to well   1315400500016 
           within the 10% estimate.                               1315400500017 
COMMENT    Multiple measurements at same energy                   1315400500018 
STATUS     (DEP,13154003)                                         1315400500019 
           (TABLE) data taken from table 1 in NSE,103,37,1989     1315400500020 
ENDBIB              18          0                                 1315400500021 
COMMON               4          3                                 1315400500022 
E-EXC      E-EXC-ERR  EN-ERR     DATA-ERR                         1315400500023 
MEV        MEV        KEV        PER-CENT                         1315400500024 
2.43       0.06        10.        10.                             1315400500025 
ENDCOMMON            3          0                                 1315400500026 
DATA                 2         12                                 1315400500027 
EN         DATA                                                   1315400500028 
MEV        B                                                      1315400500029 
 4.5        0.260                                                 1315400500030 
 5.0        0.256                                                 1315400500031 
 5.5        0.278                                                 1315400500032 
 5.9        0.263                                                 1315400500033 
 6.5        0.260                                                 1315400500034 
 7.14       0.260                                                 1315400500035 
 7.5        0.235                                                 1315400500036 
 8.03       0.224                                                 1315400500037 
 8.4        0.218                                                 1315400500038 
 9.06       0.184                                                 1315400500039 
 9.5        0.164                                                 1315400500040 
10.0        0.197                                                 1315400500041 
ENDDATA             14          0                                 1315400500042 
ENDSUBENT           41          0                                 1315400599999 
SUBENT        13154006   20120711                             13841315400600001 
BIB                  8         25                                 1315400600002 
REACTION   (4-BE-9(N,TOT),,SIG)                                   1315400600003 
INC-SOURCE (D-BE)                                                 1315400600004 
SAMPLE     2-cm-diam x 1-cm-thick cylinders were stacked to       1315400600005 
           produce several thicknesses.                           1315400600006 
METHOD     (TRN) Rotating sample technique.                       1315400600007 
           The total cross sections were deduced from the         1315400600008 
           measured transmission of the neutrons through the      1315400600009 
           samples using the white source method (see REL-REF).   1315400600010 
            The measurements were made with several sample        1315400600011 
           thicknesses, providing transmission ranging            1315400600012 
                                            from 25 to 75%.       1315400600013 
REL-REF    (M,,D.Miller+,B,FAST N.PH.,2,1983) author: D.Miller,   1315400600014 
            vol.2 - Description of white source method            1315400600015 
           (M,,A.B.Smith+,R,ANL-NDM-103,1988)- Description of     1315400600016 
            spectrum of neutrons emitted from a thick beryllium   1315400600017 
            target bombarded with 7 MeV deuterons                 1315400600018 
           (M,10935001,W.P.Poenitz+,J,NSE,78,333,1981) -          1315400600019 
                  Description of the rotating sample technique    1315400600020 
ERR-ANALYS (ERR-S) Statistical uncertainties (<1 to several       1315400600021 
             percent).                                            1315400600022 
             Identifiable systematic uncertainties                1315400600023 
             considerably smaller.                                1315400600024 
STATUS     (TABLE) Data received by electronic mail, 1990/2/23    1315400600025 
                      Approved by a.B.Smith, 1990/3/14            1315400600026 
HISTORY    (19900228A) Data added                                 1315400600027 
ENDBIB              25          0                                 1315400600028 
NOCOMMON             0          0                                 1315400600029 
DATA                 3        580                                 1315400600030 
EN         DATA       ERR-S                                       1315400600031 
MEV        B          B                                           1315400600032 
      1.000      3.409     0.1817                                 1315400600033 
      1.003      3.386     0.1718                                 1315400600034 
      1.005      3.615     0.1679                                 1315400600035 
      1.008      3.492     0.1623                                 1315400600036 
      1.010      3.565     0.1672                                 1315400600037 
      1.012      3.403     0.1610                                 1315400600038 
      1.015      3.290     0.1574                                 1315400600039 
      1.017      3.135     0.1532                                 1315400600040 
      1.020      3.214     0.1532                                 1315400600041 
      1.022      3.335     0.1491                                 1315400600042 
      1.025      3.142     0.1417                                 1315400600043 
      1.027      3.258     0.1460                                 1315400600044 
      1.030      3.249     0.1463                                 1315400600045 
      1.032      3.337     0.1442                                 1315400600046 
      1.035      3.497     0.1463                                 1315400600047 
      1.037      3.445     0.1418                                 1315400600048 
      1.040      3.434     0.1386                                 1315400600049 
      1.042      3.518     0.1374                                 1315400600050 
      1.045      3.301     0.1324                                 1315400600051 
      1.048      3.390     0.1337                                 1315400600052 
      1.050      3.420     0.1299                                 1315400600053 
      1.053      3.680     0.1335                                 1315400600054 
      1.055      3.300     0.1274                                 1315400600055 
      1.058      3.111     0.1256                                 1315400600056 
      1.061      3.247     0.1229                                 1315400600057 
      1.063      3.313     0.1244                                 1315400600058 
      1.066      3.267     0.1214                                 1315400600059 
      1.068      3.292     0.1195                                 1315400600060 
      1.071      3.176     0.1190                                 1315400600061 
      1.074      3.183     0.1188                                 1315400600062 
      1.076      3.146     0.1142                                 1315400600063 
      1.079      3.276     0.1166                                 1315400600064 
      1.082      3.117     0.1141                                 1315400600065 
      1.085      3.006     0.1101                                 1315400600066 
      1.087      3.205     0.1122                                 1315400600067 
      1.090      3.317     0.1127                                 1315400600068 
      1.093      3.044     0.1097                                 1315400600069 
      1.095      3.099     0.1092                                 1315400600070 
      1.098      2.961     0.1042                                 1315400600071 
      1.101      2.933     0.1047                                 1315400600072 
      1.104      3.012     0.1064                                 1315400600073 
      1.107      3.037     0.1066                                 1315400600074 
      1.109      3.168     0.1080                                 1315400600075 
      1.112      3.066     0.1052                                 1315400600076 
      1.115      2.955     0.1059                                 1315400600077 
      1.118      3.119     0.1042                                 1315400600078 
      1.121      3.206     0.1028                                 1315400600079 
      1.123      3.078     0.0998                                 1315400600080 
      1.126      3.076     0.0984                                 1315400600081 
      1.129      2.965     0.0949                                 1315400600082 
      1.132      3.148     0.0964                                 1315400600083 
      1.135      3.108     0.0963                                 1315400600084 
      1.138      3.160     0.0967                                 1315400600085 
      1.141      3.091     0.0936                                 1315400600086 
      1.144      2.934     0.0921                                 1315400600087 
      1.147      2.836     0.0901                                 1315400600088 
      1.150      3.026     0.0922                                 1315400600089 
      1.153      2.973     0.0897                                 1315400600090 
      1.156      2.891     0.0895                                 1315400600091 
      1.159      2.820     0.0880                                 1315400600092 
      1.162      2.896     0.0882                                 1315400600093 
      1.165      2.878     0.0863                                 1315400600094 
      1.168      2.973     0.0875                                 1315400600095 
      1.171      2.982     0.0854                                 1315400600096 
      1.174      2.917     0.0853                                 1315400600097 
      1.177      2.867     0.0845                                 1315400600098 
      1.180      3.005     0.0847                                 1315400600099 
      1.183      2.869     0.0823                                 1315400600100 
      1.186      2.785     0.0816                                 1315400600101 
      1.189      2.901     0.0817                                 1315400600102 
      1.192      2.908     0.0817                                 1315400600103 
      1.195      2.831     0.0802                                 1315400600104 
      1.199      2.749     0.0792                                 1315400600105 
      1.202      2.818     0.0799                                 1315400600106 
      1.205      2.807     0.0782                                 1315400600107 
      1.208      2.775     0.0788                                 1315400600108 
      1.211      2.727     0.0789                                 1315400600109 
      1.214      2.778     0.0780                                 1315400600110 
      1.218      2.893     0.0760                                 1315400600111 
      1.221      2.905     0.0769                                 1315400600112 
      1.224      2.829     0.0757                                 1315400600113 
      1.227      2.821     0.0737                                 1315400600114 
      1.231      2.894     0.0745                                 1315400600115 
      1.234      2.758     0.0734                                 1315400600116 
      1.237      2.665     0.0717                                 1315400600117 
      1.241      2.639     0.0720                                 1315400600118 
      1.244      2.687     0.0714                                 1315400600119 
      1.247      2.732     0.0709                                 1315400600120 
      1.251      2.754     0.0705                                 1315400600121 
      1.254      2.668     0.0696                                 1315400600122 
      1.257      2.831     0.0704                                 1315400600123 
      1.261      2.794     0.0706                                 1315400600124 
      1.264      2.706     0.0689                                 1315400600125 
      1.268      2.718     0.0690                                 1315400600126 
      1.271      2.611     0.0678                                 1315400600127 
      1.274      2.659     0.0676                                 1315400600128 
      1.278      2.715     0.0679                                 1315400600129 
      1.281      2.716     0.0676                                 1315400600130 
      1.285      2.606     0.0666                                 1315400600131 
      1.288      2.740     0.0679                                 1315400600132 
      1.292      2.601     0.0661                                 1315400600133 
      1.295      2.503     0.0657                                 1315400600134 
      1.299      2.545     0.0655                                 1315400600135 
      1.302      2.554     0.0655                                 1315400600136 
      1.306      2.675     0.0662                                 1315400600137 
      1.310      2.611     0.0649                                 1315400600138 
      1.313      2.607     0.0654                                 1315400600139 
      1.317      2.562     0.0640                                 1315400600140 
      1.321      2.592     0.0643                                 1315400600141 
      1.324      2.567     0.0637                                 1315400600142 
      1.328      2.443     0.0624                                 1315400600143 
      1.332      2.447     0.0622                                 1315400600144 
      1.335      2.478     0.0620                                 1315400600145 
      1.339      2.626     0.0625                                 1315400600146 
      1.343      2.548     0.0623                                 1315400600147 
      1.346      2.488     0.0620                                 1315400600148 
      1.350      2.426     0.0620                                 1315400600149 
      1.354      2.457     0.0610                                 1315400600150 
      1.358      2.394     0.0596                                 1315400600151 
      1.362      2.413     0.0585                                 1315400600152 
      1.365      2.468     0.0590                                 1315400600153 
      1.369      2.359     0.0583                                 1315400600154 
      1.373      2.315     0.0578                                 1315400600155 
      1.377      2.376     0.0571                                 1315400600156 
      1.381      2.378     0.0574                                 1315400600157 
      1.385      2.420     0.0570                                 1315400600158 
      1.389      2.383     0.0561                                 1315400600159 
      1.393      2.335     0.0560                                 1315400600160 
      1.396      2.452     0.0564                                 1315400600161 
      1.400      2.374     0.0563                                 1315400600162 
      1.404      2.317     0.0551                                 1315400600163 
      1.408      2.319     0.0552                                 1315400600164 
      1.412      2.390     0.0552                                 1315400600165 
      1.417      2.308     0.0544                                 1315400600166 
      1.421      2.312     0.0541                                 1315400600167 
      1.425      2.237     0.0534                                 1315400600168 
      1.429      2.345     0.0536                                 1315400600169 
      1.433      2.273     0.0526                                 1315400600170 
      1.437      2.318     0.0525                                 1315400600171 
      1.441      2.243     0.0516                                 1315400600172 
      1.445      2.352     0.0520                                 1315400600173 
      1.449      2.288     0.0512                                 1315400600174 
      1.454      2.274     0.0509                                 1315400600175 
      1.458      2.259     0.0507                                 1315400600176 
      1.462      2.158     0.0499                                 1315400600177 
      1.466      2.183     0.0501                                 1315400600178 
      1.471      2.223     0.0499                                 1315400600179 
      1.475      2.210     0.0500                                 1315400600180 
      1.479      2.239     0.0500                                 1315400600181 
      1.484      2.197     0.0492                                 1315400600182 
      1.488      2.219     0.0492                                 1315400600183 
      1.492      2.134     0.0485                                 1315400600184 
      1.497      2.149     0.0487                                 1315400600185 
      1.501      2.157     0.0477                                 1315400600186 
      1.506      2.088     0.0479                                 1315400600187 
      1.510      2.044     0.0475                                 1315400600188 
      1.514      2.163     0.0476                                 1315400600189 
      1.519      2.178     0.0472                                 1315400600190 
      1.523      2.094     0.0470                                 1315400600191 
      1.528      2.116     0.0464                                 1315400600192 
      1.532      2.073     0.0461                                 1315400600193 
      1.537      2.100     0.0461                                 1315400600194 
      1.542      2.095     0.0461                                 1315400600195 
      1.546      2.104     0.0457                                 1315400600196 
      1.551      2.119     0.0455                                 1315400600197 
      1.556      2.013     0.0455                                 1315400600198 
      1.560      2.023     0.0449                                 1315400600199 
      1.565      2.047     0.0451                                 1315400600200 
      1.570      2.056     0.0447                                 1315400600201 
      1.574      2.095     0.0448                                 1315400600202 
      1.579      2.081     0.0444                                 1315400600203 
      1.584      2.005     0.0444                                 1315400600204 
      1.589      2.004     0.0445                                 1315400600205 
      1.593      2.026     0.0444                                 1315400600206 
      1.598      1.966     0.0441                                 1315400600207 
      1.603      2.029     0.0434                                 1315400600208 
      1.608      2.031     0.0432                                 1315400600209 
      1.613      1.925     0.0426                                 1315400600210 
      1.618      1.911     0.0423                                 1315400600211 
      1.623      1.983     0.0425                                 1315400600212 
      1.628      1.912     0.0417                                 1315400600213 
      1.633      1.921     0.0415                                 1315400600214 
      1.638      1.932     0.0417                                 1315400600215 
      1.643      1.876     0.0412                                 1315400600216 
      1.648      1.903     0.0413                                 1315400600217 
      1.653      1.862     0.0412                                 1315400600218 
      1.658      1.912     0.0410                                 1315400600219 
      1.663      1.886     0.0405                                 1315400600220 
      1.668      1.910     0.0400                                 1315400600221 
      1.674      1.838     0.0398                                 1315400600222 
      1.679      1.885     0.0399                                 1315400600223 
      1.684      1.859     0.0398                                 1315400600224 
      1.689      1.840     0.0394                                 1315400600225 
      1.695      1.838     0.0393                                 1315400600226 
      1.700      1.767     0.0390                                 1315400600227 
      1.705      1.819     0.0392                                 1315400600228 
      1.711      1.766     0.0390                                 1315400600229 
      1.716      1.780     0.0388                                 1315400600230 
      1.721      1.805     0.0389                                 1315400600231 
      1.727      1.843     0.0387                                 1315400600232 
      1.732      1.800     0.0384                                 1315400600233 
      1.738      1.784     0.0380                                 1315400600234 
      1.743      1.769     0.0380                                 1315400600235 
      1.749      1.709     0.0380                                 1315400600236 
      1.754      1.795     0.0383                                 1315400600237 
      1.760      1.754     0.0381                                 1315400600238 
      1.766      1.734     0.0381                                 1315400600239 
      1.771      1.701     0.0380                                 1315400600240 
      1.777      1.767     0.0379                                 1315400600241 
      1.783      1.756     0.0374                                 1315400600242 
      1.788      1.713     0.0373                                 1315400600243 
      1.794      1.749     0.0371                                 1315400600244 
      1.800      1.718     0.0368                                 1315400600245 
      1.806      1.750     0.0366                                 1315400600246 
      1.812      1.710     0.0362                                 1315400600247 
      1.818      1.681     0.0362                                 1315400600248 
      1.823      1.680     0.0356                                 1315400600249 
      1.829      1.744     0.0360                                 1315400600250 
      1.835      1.770     0.0362                                 1315400600251 
      1.841      1.773     0.0357                                 1315400600252 
      1.847      1.777     0.0356                                 1315400600253 
      1.853      1.742     0.0353                                 1315400600254 
      1.859      1.702     0.0352                                 1315400600255 
      1.866      1.654     0.0350                                 1315400600256 
      1.872      1.694     0.0346                                 1315400600257 
      1.878      1.657     0.0346                                 1315400600258 
      1.884      1.688     0.0343                                 1315400600259 
      1.890      1.671     0.0345                                 1315400600260 
      1.897      1.701     0.0343                                 1315400600261 
      1.903      1.678     0.0342                                 1315400600262 
      1.909      1.653     0.0339                                 1315400600263 
      1.915      1.710     0.0340                                 1315400600264 
      1.922      1.694     0.0337                                 1315400600265 
      1.928      1.637     0.0334                                 1315400600266 
      1.935      1.653     0.0332                                 1315400600267 
      1.941      1.670     0.0333                                 1315400600268 
      1.948      1.683     0.0333                                 1315400600269 
      1.954      1.637     0.0329                                 1315400600270 
      1.961      1.683     0.0328                                 1315400600271 
      1.967      1.716     0.0329                                 1315400600272 
      1.974      1.682     0.0326                                 1315400600273 
      1.981      1.661     0.0323                                 1315400600274 
      1.987      1.670     0.0324                                 1315400600275 
      1.994      1.688     0.0324                                 1315400600276 
      2.001      1.733     0.0321                                 1315400600277 
      2.008      1.663     0.0319                                 1315400600278 
      2.015      1.641     0.0320                                 1315400600279 
      2.022      1.690     0.0320                                 1315400600280 
      2.028      1.663     0.0315                                 1315400600281 
      2.035      1.665     0.0315                                 1315400600282 
      2.042      1.654     0.0311                                 1315400600283 
      2.049      1.736     0.0315                                 1315400600284 
      2.057      1.760     0.0314                                 1315400600285 
      2.064      1.730     0.0312                                 1315400600286 
      2.071      1.749     0.0311                                 1315400600287 
      2.078      1.709     0.0312                                 1315400600288 
      2.085      1.723     0.0312                                 1315400600289 
      2.092      1.700     0.0308                                 1315400600290 
      2.100      1.740     0.0306                                 1315400600291 
      2.107      1.789     0.0306                                 1315400600292 
      2.114      1.724     0.0306                                 1315400600293 
      2.122      1.719     0.0305                                 1315400600294 
      2.129      1.762     0.0304                                 1315400600295 
      2.137      1.790     0.0304                                 1315400600296 
      2.144      1.769     0.0304                                 1315400600297 
      2.152      1.802     0.0304                                 1315400600298 
      2.159      1.775     0.0301                                 1315400600299 
      2.167      1.825     0.0302                                 1315400600300 
      2.175      1.805     0.0301                                 1315400600301 
      2.182      1.818     0.0299                                 1315400600302 
      2.190      1.843     0.0302                                 1315400600303 
      2.198      1.825     0.0300                                 1315400600304 
      2.206      1.838     0.0298                                 1315400600305 
      2.214      1.865     0.0299                                 1315400600306 
      2.222      1.901     0.0297                                 1315400600307 
      2.230      1.915     0.0296                                 1315400600308 
      2.238      1.903     0.0298                                 1315400600309 
      2.246      1.925     0.0297                                 1315400600310 
      2.254      1.955     0.0294                                 1315400600311 
      2.262      1.929     0.0294                                 1315400600312 
      2.270      1.940     0.0292                                 1315400600313 
      2.278      2.014     0.0293                                 1315400600314 
      2.287      1.978     0.0291                                 1315400600315 
      2.295      1.975     0.0291                                 1315400600316 
      2.303      1.994     0.0290                                 1315400600317 
      2.312      2.031     0.0291                                 1315400600318 
      2.320      2.038     0.0290                                 1315400600319 
      2.329      2.070     0.0291                                 1315400600320 
      2.337      2.118     0.0290                                 1315400600321 
      2.346      2.128     0.0291                                 1315400600322 
      2.355      2.130     0.0288                                 1315400600323 
      2.363      2.125     0.0289                                 1315400600324 
      2.372      2.110     0.0288                                 1315400600325 
      2.381      2.188     0.0289                                 1315400600326 
      2.390      2.241     0.0291                                 1315400600327 
      2.399      2.277     0.0292                                 1315400600328 
      2.408      2.241     0.0290                                 1315400600329 
      2.417      2.273     0.0291                                 1315400600330 
      2.426      2.306     0.0291                                 1315400600331 
      2.435      2.281     0.0290                                 1315400600332 
      2.444      2.384     0.0292                                 1315400600333 
      2.453      2.443     0.0293                                 1315400600334 
      2.462      2.444     0.0291                                 1315400600335 
      2.472      2.453     0.0292                                 1315400600336 
      2.481      2.502     0.0295                                 1315400600337 
      2.491      2.529     0.0295                                 1315400600338 
      2.500      2.579     0.0296                                 1315400600339 
      2.510      2.571     0.0296                                 1315400600340 
      2.519      2.633     0.0296                                 1315400600341 
      2.529      2.694     0.0297                                 1315400600342 
      2.538      2.702     0.0297                                 1315400600343 
      2.548      2.724     0.0299                                 1315400600344 
      2.558      2.827     0.0300                                 1315400600345 
      2.568      2.841     0.0303                                 1315400600346 
      2.578      2.896     0.0303                                 1315400600347 
      2.588      2.936     0.0304                                 1315400600348 
      2.598      2.997     0.0307                                 1315400600349 
      2.608      3.057     0.0307                                 1315400600350 
      2.618      3.109     0.0309                                 1315400600351 
      2.628      3.124     0.0310                                 1315400600352 
      2.639      3.289     0.0316                                 1315400600353 
      2.649      3.373     0.0321                                 1315400600354 
      2.659      3.522     0.0324                                 1315400600355 
      2.670      3.676     0.0333                                 1315400600356 
      2.680      3.852     0.0343                                 1315400600357 
      2.691      4.031     0.0352                                 1315400600358 
      2.701      4.160     0.0355                                 1315400600359 
      2.712      4.212     0.0359                                 1315400600360 
      2.723      4.190     0.0357                                 1315400600361 
      2.734      4.150     0.0352                                 1315400600362 
      2.745      4.100     0.0351                                 1315400600363 
      2.756      4.019     0.0345                                 1315400600364 
      2.767      3.951     0.0341                                 1315400600365 
      2.778      3.870     0.0335                                 1315400600366 
      2.789      3.850     0.0334                                 1315400600367 
      2.800      3.823     0.0332                                 1315400600368 
      2.811      3.737     0.0328                                 1315400600369 
      2.823      3.729     0.0328                                 1315400600370 
      2.834      3.720     0.0325                                 1315400600371 
      2.846      3.662     0.0322                                 1315400600372 
      2.857      3.596     0.0319                                 1315400600373 
      2.869      3.592     0.0319                                 1315400600374 
      2.881      3.533     0.0315                                 1315400600375 
      2.892      3.502     0.0315                                 1315400600376 
      2.904      3.433     0.0311                                 1315400600377 
      2.916      3.435     0.0309                                 1315400600378 
      2.928      3.412     0.0309                                 1315400600379 
      2.940      3.409     0.0308                                 1315400600380 
      2.952      3.318     0.0306                                 1315400600381 
      2.965      3.229     0.0302                                 1315400600382 
      2.977      3.266     0.0301                                 1315400600383 
      2.989      3.215     0.0298                                 1315400600384 
      3.002      3.123     0.0294                                 1315400600385 
      3.014      3.103     0.0292                                 1315400600386 
      3.027      3.039     0.0289                                 1315400600387 
      3.040      3.045     0.0287                                 1315400600388 
      3.053      2.979     0.0285                                 1315400600389 
      3.065      2.957     0.0284                                 1315400600390 
      3.078      2.904     0.0282                                 1315400600391 
      3.091      2.898     0.0281                                 1315400600392 
      3.104      2.875     0.0279                                 1315400600393 
      3.118      2.826     0.0278                                 1315400600394 
      3.131      2.865     0.0277                                 1315400600395 
      3.144      2.801     0.0275                                 1315400600396 
      3.158      2.745     0.0273                                 1315400600397 
      3.171      2.783     0.0272                                 1315400600398 
      3.185      2.704     0.0270                                 1315400600399 
      3.199      2.717     0.0271                                 1315400600400 
      3.212      2.713     0.0270                                 1315400600401 
      3.226      2.702     0.0268                                 1315400600402 
      3.240      2.578     0.0265                                 1315400600403 
      3.254      2.619     0.0264                                 1315400600404 
      3.269      2.622     0.0264                                 1315400600405 
      3.283      2.607     0.0264                                 1315400600406 
      3.297      2.583     0.0262                                 1315400600407 
      3.312      2.539     0.0260                                 1315400600408 
      3.326      2.526     0.0260                                 1315400600409 
      3.341      2.554     0.0261                                 1315400600410 
      3.355      2.447     0.0258                                 1315400600411 
      3.370      2.512     0.0259                                 1315400600412 
      3.385      2.471     0.0261                                 1315400600413 
      3.400      2.430     0.0259                                 1315400600414 
      3.415      2.430     0.0260                                 1315400600415 
      3.431      2.394     0.0259                                 1315400600416 
      3.446      2.435     0.0260                                 1315400600417 
      3.461      2.381     0.0261                                 1315400600418 
      3.477      2.409     0.0260                                 1315400600419 
      3.493      2.376     0.0261                                 1315400600420 
      3.508      2.388     0.0263                                 1315400600421 
      3.524      2.308     0.0261                                 1315400600422 
      3.540      2.310     0.0261                                 1315400600423 
      3.556      2.361     0.0262                                 1315400600424 
      3.572      2.296     0.0261                                 1315400600425 
      3.589      2.275     0.0260                                 1315400600426 
      3.605      2.338     0.0259                                 1315400600427 
      3.622      2.309     0.0259                                 1315400600428 
      3.638      2.254     0.0257                                 1315400600429 
      3.655      2.255     0.0256                                 1315400600430 
      3.672      2.209     0.0255                                 1315400600431 
      3.689      2.189     0.0252                                 1315400600432 
      3.706      2.173     0.0251                                 1315400600433 
      3.723      2.174     0.0250                                 1315400600434 
      3.741      2.146     0.0249                                 1315400600435 
      3.758      2.171     0.0249                                 1315400600436 
      3.776      2.168     0.0248                                 1315400600437 
      3.793      2.125     0.0246                                 1315400600438 
      3.811      2.124     0.0245                                 1315400600439 
      3.829      2.143     0.0244                                 1315400600440 
      3.847      2.115     0.0243                                 1315400600441 
      3.865      2.087     0.0242                                 1315400600442 
      3.884      2.080     0.0241                                 1315400600443 
      3.902      2.057     0.0240                                 1315400600444 
      3.921      2.061     0.0240                                 1315400600445 
      3.940      2.086     0.0240                                 1315400600446 
      3.958      2.041     0.0239                                 1315400600447 
      3.977      2.023     0.0242                                 1315400600448 
      3.997      1.997     0.0241                                 1315400600449 
      4.016      2.005     0.0242                                 1315400600450 
      4.035      2.005     0.0245                                 1315400600451 
      4.055      1.980     0.0245                                 1315400600452 
      4.075      1.997     0.0246                                 1315400600453 
      4.094      1.930     0.0245                                 1315400600454 
      4.114      1.894     0.0244                                 1315400600455 
      4.135      1.883     0.0243                                 1315400600456 
      4.155      1.881     0.0243                                 1315400600457 
      4.175      1.893     0.0245                                 1315400600458 
      4.196      1.877     0.0244                                 1315400600459 
      4.217      1.929     0.0246                                 1315400600460 
      4.238      1.908     0.0246                                 1315400600461 
      4.259      1.992     0.0247                                 1315400600462 
      4.280      1.969     0.0247                                 1315400600463 
      4.301      2.014     0.0248                                 1315400600464 
      4.323      2.040     0.0248                                 1315400600465 
      4.345      2.036     0.0249                                 1315400600466 
      4.366      2.018     0.0247                                 1315400600467 
      4.389      2.023     0.0248                                 1315400600468 
      4.411      2.029     0.0247                                 1315400600469 
      4.433      1.992     0.0246                                 1315400600470 
      4.456      2.002     0.0246                                 1315400600471 
      4.478      2.035     0.0245                                 1315400600472 
      4.501      2.011     0.0244                                 1315400600473 
      4.524      1.984     0.0243                                 1315400600474 
      4.548      1.934     0.0242                                 1315400600475 
      4.571      1.955     0.0242                                 1315400600476 
      4.595      1.971     0.0242                                 1315400600477 
      4.618      1.955     0.0240                                 1315400600478 
      4.642      1.953     0.0237                                 1315400600479 
      4.667      1.953     0.0236                                 1315400600480 
      4.691      1.946     0.0233                                 1315400600481 
      4.716      1.909     0.0230                                 1315400600482 
      4.740      1.947     0.0229                                 1315400600483 
      4.765      1.914     0.0227                                 1315400600484 
      4.790      1.921     0.0226                                 1315400600485 
      4.816      1.939     0.0225                                 1315400600486 
      4.841      1.906     0.0224                                 1315400600487 
      4.867      1.901     0.0222                                 1315400600488 
      4.893      1.918     0.0220                                 1315400600489 
      4.919      1.900     0.0218                                 1315400600490 
      4.946      1.880     0.0216                                 1315400600491 
      4.972      1.876     0.0216                                 1315400600492 
      4.999      1.878     0.0215                                 1315400600493 
      5.026      1.894     0.0217                                 1315400600494 
      5.053      1.913     0.0219                                 1315400600495 
      5.081      1.930     0.0222                                 1315400600496 
      5.108      1.927     0.0228                                 1315400600497 
      5.136      1.909     0.0234                                 1315400600498 
      5.164      1.863     0.0239                                 1315400600499 
      5.193      1.916     0.0244                                 1315400600500 
      5.221      1.927     0.0249                                 1315400600501 
      5.250      1.908     0.0251                                 1315400600502 
      5.279      1.888     0.0255                                 1315400600503 
      5.309      1.896     0.0256                                 1315400600504 
      5.338      1.942     0.0257                                 1315400600505 
      5.368      1.922     0.0257                                 1315400600506 
      5.398      1.890     0.0256                                 1315400600507 
      5.428      1.887     0.0257                                 1315400600508 
      5.459      1.889     0.0256                                 1315400600509 
      5.490      1.886     0.0256                                 1315400600510 
      5.521      1.900     0.0256                                 1315400600511 
      5.552      1.866     0.0255                                 1315400600512 
      5.584      1.868     0.0256                                 1315400600513 
      5.616      1.864     0.0255                                 1315400600514 
      5.648      1.857     0.0256                                 1315400600515 
      5.681      1.903     0.0258                                 1315400600516 
      5.713      1.864     0.0260                                 1315400600517 
      5.746      1.878     0.0264                                 1315400600518 
      5.780      1.881     0.0272                                 1315400600519 
      5.813      1.873     0.0283                                 1315400600520 
      5.847      1.850     0.0298                                 1315400600521 
      5.882      1.827     0.0316                                 1315400600522 
      5.916      1.842     0.0337                                 1315400600523 
      5.951      1.851     0.0364                                 1315400600524 
      5.986      1.885     0.0395                                 1315400600525 
      6.022      1.843     0.0418                                 1315400600526 
      6.057      1.905     0.0449                                 1315400600527 
      6.093      1.853     0.0473                                 1315400600528 
      6.130      1.897     0.0521                                 1315400600529 
      6.167      1.847     0.0557                                 1315400600530 
      6.204      1.812     0.0573                                 1315400600531 
      6.241      1.841     0.0577                                 1315400600532 
      6.279      1.868     0.0585                                 1315400600533 
      6.317      1.814     0.0585                                 1315400600534 
      6.355      1.838     0.0580                                 1315400600535 
      6.394      1.882     0.0587                                 1315400600536 
      6.433      1.758     0.0588                                 1315400600537 
      6.473      1.831     0.0595                                 1315400600538 
      6.513      1.804     0.0597                                 1315400600539 
      6.553      1.859     0.0597                                 1315400600540 
      6.594      1.865     0.0596                                 1315400600541 
      6.635      1.810     0.0592                                 1315400600542 
      6.676      1.796     0.0592                                 1315400600543 
      6.718      1.790     0.0600                                 1315400600544 
      6.760      1.900     0.0595                                 1315400600545 
      6.802      1.823     0.0593                                 1315400600546 
      6.845      1.746     0.0594                                 1315400600547 
      6.889      1.815     0.0596                                 1315400600548 
      6.933      1.778     0.0589                                 1315400600549 
      6.977      1.806     0.0586                                 1315400600550 
      7.022      1.932     0.0589                                 1315400600551 
      7.067      1.804     0.0583                                 1315400600552 
      7.112      1.829     0.0578                                 1315400600553 
      7.158      1.772     0.0576                                 1315400600554 
      7.205      1.834     0.0579                                 1315400600555 
      7.251      1.792     0.0567                                 1315400600556 
      7.299      1.804     0.0569                                 1315400600557 
      7.347      1.813     0.0566                                 1315400600558 
      7.395      1.766     0.0568                                 1315400600559 
      7.444      1.781     0.0575                                 1315400600560 
      7.493      1.799     0.0575                                 1315400600561 
      7.543      1.726     0.0589                                 1315400600562 
      7.593      1.638     0.0586                                 1315400600563 
      7.643      1.681     0.0594                                 1315400600564 
      7.695      1.864     0.0596                                 1315400600565 
      7.746      1.734     0.0594                                 1315400600566 
      7.799      1.726     0.0594                                 1315400600567 
      7.852      1.708     0.0599                                 1315400600568 
      7.905      1.713     0.0583                                 1315400600569 
      7.959      1.739     0.0580                                 1315400600570 
      8.013      1.741     0.0578                                 1315400600571 
      8.068      1.747     0.0572                                 1315400600572 
      8.124      1.771     0.0571                                 1315400600573 
      8.180      1.788     0.0561                                 1315400600574 
      8.237      1.737     0.0562                                 1315400600575 
      8.294      1.822     0.0553                                 1315400600576 
      8.352      1.772     0.0554                                 1315400600577 
      8.411      1.720     0.0554                                 1315400600578 
      8.470      1.682     0.0547                                 1315400600579 
      8.530      1.741     0.0551                                 1315400600580 
      8.590      1.733     0.0546                                 1315400600581 
      8.652      1.744     0.0546                                 1315400600582 
      8.713      1.789     0.0550                                 1315400600583 
      8.776      1.782     0.0547                                 1315400600584 
      8.839      1.726     0.0547                                 1315400600585 
      8.903      1.665     0.0548                                 1315400600586 
      8.967      1.790     0.0560                                 1315400600587 
      9.032      1.709     0.0568                                 1315400600588 
      9.098      1.740     0.0573                                 1315400600589 
      9.165      1.746     0.0584                                 1315400600590 
      9.232      1.752     0.0594                                 1315400600591 
      9.301      1.677     0.0596                                 1315400600592 
      9.369      1.684     0.0612                                 1315400600593 
      9.439      1.736     0.0630                                 1315400600594 
      9.510      1.676     0.0641                                 1315400600595 
      9.581      1.707     0.0657                                 1315400600596 
      9.653      1.738     0.0662                                 1315400600597 
      9.726      1.743     0.0675                                 1315400600598 
      9.800      1.747     0.0679                                 1315400600599 
      9.874      1.705     0.0677                                 1315400600600 
      9.950      1.654     0.0681                                 1315400600601 
     10.030      1.831     0.0701                                 1315400600602 
     10.100      1.694     0.0683                                 1315400600603 
     10.180      1.711     0.0700                                 1315400600604 
     10.260      1.794     0.0703                                 1315400600605 
     10.340      1.705     0.0725                                 1315400600606 
     10.420      1.754     0.0753                                 1315400600607 
     10.500      1.596     0.0778                                 1315400600608 
     10.590      1.689     0.0810                                 1315400600609 
     10.670      1.742     0.0843                                 1315400600610 
     10.750      1.713     0.0863                                 1315400600611 
     10.840      1.584     0.0890                                 1315400600612 
ENDDATA            582          0                                 1315400600613 
ENDSUBENT          612          0                                 1315400699999 
ENDENTRY             6          0                                 1315499999999 
