ENTRY            13778   20030827                             00001377800000001 
SUBENT        13778001   20030827                             00001377800100001 
BIB                  9         14                                 1377800100002 
INSTITUTE  (1USAANL,1USAUAZ)                                      1377800100003 
REFERENCE  (J,ANE,29,1241,200206)                                 1377800100004 
           (R,ANL-NDM-153,200106)                                 1377800100005 
AUTHOR     (A.B.Smith)                                            1377800100006 
TITLE      The Interaction of fast neutrons with hafnium          1377800100007 
FACILITY   (DYNAM,1USAANL)                                        1377800100008 
METHOD     (TOF)                                                  1377800100009 
ERR-ANALYS (DATA-ERR) Uncertainties are best estimate of total    1377800100010 
            error, combining systematic and statistical           1377800100011 
            uncertainties.                                        1377800100012 
STATUS     Data received by email from A. Smith, 20 November 2001.1377800100013 
           (APRVD) Approved by A. Smith, 26 November 2001.        1377800100014 
HISTORY    (20011120C) VM                                         1377800100015 
           (20030827A) Reference updated.                         1377800100016 
ENDBIB              14          0                                 1377800100017 
NOCOMMON             0          0                                 1377800100018 
ENDSUBENT           17          0                                 1377800199999 
SUBENT        13778002   20011126                             00001377800200001 
BIB                  4          4                                 1377800200002 
REACTION   (72-HF-0(N,TOT),,SIG)                                  1377800200003 
SAMPLE     Metallic hafnium; chemical purity > 98%.               1377800200004 
DETECTOR   (SCIN) Liquid scintillator.                            1377800200005 
CORRECTION Corrected for inscattering (negligible) and dead time. 1377800200006 
ENDBIB               4          0                                 1377800200007 
NOCOMMON             0          0                                 1377800200008 
DATA                 3        138                                 1377800200009 
EN         DATA       DATA-ERR                                    1377800200010 
MEV        B          B                                           1377800200011 
 0.7498E+00 0.7538E+01 0.6882E-01                                 1377800200012 
 0.8008E+00 0.7458E+01 0.7134E-01                                 1377800200013 
 0.8515E+00 0.7526E+01 0.7237E-01                                 1377800200014 
 0.9020E+00 0.7396E+01 0.6884E-01                                 1377800200015 
 0.9584E+00 0.7395E+01 0.7937E-01                                 1377800200016 
 0.1008E+01 0.7437E+01 0.7752E-01                                 1377800200017 
 0.1058E+01 0.7369E+01 0.7888E-01                                 1377800200018 
 0.1108E+01 0.7350E+01 0.7763E-01                                 1377800200019 
 0.1163E+01 0.7361E+01 0.7783E-01                                 1377800200020 
 0.1163E+01 0.7275E+01 0.7523E-01                                 1377800200021 
 0.1212E+01 0.7242E+01 0.7699E-01                                 1377800200022 
 0.1212E+01 0.7388E+01 0.7384E-01                                 1377800200023 
 0.1261E+01 0.7329E+01 0.7874E-01                                 1377800200024 
 0.1261E+01 0.7408E+01 0.7431E-01                                 1377800200025 
 0.1315E+01 0.7487E+01 0.7818E-01                                 1377800200026 
 0.1315E+01 0.7522E+01 0.7627E-01                                 1377800200027 
 0.1364E+01 0.7336E+01 0.7959E-01                                 1377800200028 
 0.1364E+01 0.7365E+01 0.7477E-01                                 1377800200029 
 0.1418E+01 0.7426E+01 0.8029E-01                                 1377800200030 
 0.1418E+01 0.7328E+01 0.7369E-01                                 1377800200031 
 0.1466E+01 0.7578E+01 0.7990E-01                                 1377800200032 
 0.1466E+01 0.7372E+01 0.7426E-01                                 1377800200033 
 0.1519E+01 0.7129E+01 0.7865E-01                                 1377800200034 
 0.1567E+01 0.7317E+01 0.8060E-01                                 1377800200035 
 0.1620E+01 0.7199E+01 0.8038E-01                                 1377800200036 
 0.1620E+01 0.7227E+01 0.8675E-01                                 1377800200037 
 0.1667E+01 0.7260E+01 0.8339E-01                                 1377800200038 
 0.1667E+01 0.7288E+01 0.8889E-01                                 1377800200039 
 0.1719E+01 0.7256E+01 0.8559E-01                                 1377800200040 
 0.1719E+01 0.7377E+01 0.8880E-01                                 1377800200041 
 0.1766E+01 0.7270E+01 0.9272E-01                                 1377800200042 
 0.1772E+01 0.7440E+01 0.8442E-01                                 1377800200043 
 0.1818E+01 0.7331E+01 0.9247E-01                                 1377800200044 
 0.1824E+01 0.7445E+01 0.8431E-01                                 1377800200045 
 0.1870E+01 0.7393E+01 0.8365E-01                                 1377800200046 
 0.1870E+01 0.7547E+01 0.9211E-01                                 1377800200047 
 0.1916E+01 0.7292E+01 0.8339E-01                                 1377800200048 
 0.1922E+01 0.7202E+01 0.7991E-01                                 1377800200049 
 0.1967E+01 0.7482E+01 0.9405E-01                                 1377800200050 
 0.1973E+01 0.7174E+01 0.7911E-01                                 1377800200051 
 0.2018E+01 0.7292E+01 0.9328E-01                                 1377800200052 
 0.2024E+01 0.7066E+01 0.8548E-01                                 1377800200053 
 0.2069E+01 0.7357E+01 0.9547E-01                                 1377800200054 
 0.2075E+01 0.7093E+01 0.8748E-01                                 1377800200055 
 0.2120E+01 0.7498E+01 0.9481E-01                                 1377800200056 
 0.2126E+01 0.7487E+01 0.8900E-01                                 1377800200057 
 0.2171E+01 0.7276E+01 0.9952E-01                                 1377800200058 
 0.2204E+01 0.7598E+01 0.9159E-01                                 1377800200059 
 0.2221E+01 0.7447E+01 0.1002E+00                                 1377800200060 
 0.2227E+01 0.7533E+01 0.1052E+00                                 1377800200061 
 0.2271E+01 0.7347E+01 0.1004E+00                                 1377800200062 
 0.2277E+01 0.7409E+01 0.1019E+00                                 1377800200063 
 0.2321E+01 0.7402E+01 0.1029E+00                                 1377800200064 
 0.2321E+01 0.7317E+01 0.1039E+00                                 1377800200065 
 0.2371E+01 0.7186E+01 0.1029E+00                                 1377800200066 
 0.2377E+01 0.7037E+01 0.1033E+00                                 1377800200067 
 0.2421E+01 0.7441E+01 0.1060E+00                                 1377800200068 
 0.2426E+01 0.7203E+01 0.1027E+00                                 1377800200069 
 0.2470E+01 0.7093E+01 0.1060E+00                                 1377800200070 
 0.2475E+01 0.6945E+01 0.1064E+00                                 1377800200071 
 0.2519E+01 0.7261E+01 0.1023E+00                                 1377800200072 
 0.2525E+01 0.7387E+01 0.1077E+00                                 1377800200073 
 0.2573E+01 0.7081E+01 0.1087E+00                                 1377800200074 
 0.2617E+01 0.7401E+01 0.1009E+00                                 1377800200075 
 0.2622E+01 0.7126E+01 0.1128E+00                                 1377800200076 
 0.2622E+01 0.7414E+01 0.1067E+00                                 1377800200077 
 0.2665E+01 0.7112E+01 0.9784E-01                                 1377800200078 
 0.2676E+01 0.6903E+01 0.1124E+00                                 1377800200079 
 0.2714E+01 0.7147E+01 0.9546E-01                                 1377800200080 
 0.2725E+01 0.7215E+01 0.1174E+00                                 1377800200081 
 0.2767E+01 0.7089E+01 0.9267E-01                                 1377800200082 
 0.2773E+01 0.7321E+01 0.9376E-01                                 1377800200083 
 0.2815E+01 0.7055E+01 0.9288E-01                                 1377800200084 
 0.2821E+01 0.7025E+01 0.9024E-01                                 1377800200085 
 0.2863E+01 0.7268E+01 0.8972E-01                                 1377800200086 
 0.2874E+01 0.7268E+01 0.8737E-01                                 1377800200087 
 0.2916E+01 0.7004E+01 0.8616E-01                                 1377800200088 
 0.2964E+01 0.7411E+01 0.8727E-01                                 1377800200089 
 0.2975E+01 0.7173E+01 0.8455E-01                                 1377800200090 
 0.3011E+01 0.7045E+01 0.8577E-01                                 1377800200091 
 0.3022E+01 0.7121E+01 0.8342E-01                                 1377800200092 
 0.3064E+01 0.7091E+01 0.8518E-01                                 1377800200093 
 0.3090E+01 0.7028E+01 0.8186E-01                                 1377800200094 
 0.3111E+01 0.6809E+01 0.8107E-01                                 1377800200095 
 0.3137E+01 0.7024E+01 0.7983E-01                                 1377800200096 
 0.3163E+01 0.7081E+01 0.8146E-01                                 1377800200097 
 0.3189E+01 0.6942E+01 0.8046E-01                                 1377800200098 
 0.3210E+01 0.6798E+01 0.8083E-01                                 1377800200099 
 0.3236E+01 0.7034E+01 0.7850E-01                                 1377800200100 
 0.3262E+01 0.6624E+01 0.8401E-01                                 1377800200101 
 0.3288E+01 0.6853E+01 0.7666E-01                                 1377800200102 
 0.3313E+01 0.7010E+01 0.8160E-01                                 1377800200103 
 0.3334E+01 0.6784E+01 0.8036E-01                                 1377800200104 
 0.3365E+01 0.6799E+01 0.8496E-01                                 1377800200105 
 0.3385E+01 0.6805E+01 0.8050E-01                                 1377800200106 
 0.3411E+01 0.6614E+01 0.9621E-01                                 1377800200107 
 0.3437E+01 0.6664E+01 0.8026E-01                                 1377800200108 
 0.3462E+01 0.6538E+01 0.8721E-01                                 1377800200109 
 0.3488E+01 0.6946E+01 0.8288E-01                                 1377800200110 
 0.3508E+01 0.6507E+01 0.8281E-01                                 1377800200111 
 0.3534E+01 0.6958E+01 0.9534E-01                                 1377800200112 
 0.3559E+01 0.6994E+01 0.9128E-01                                 1377800200113 
 0.3585E+01 0.6585E+01 0.8658E-01                                 1377800200114 
 0.3610E+01 0.6829E+01 0.8514E-01                                 1377800200115 
 0.3635E+01 0.6640E+01 0.8660E-01                                 1377800200116 
 0.3661E+01 0.6809E+01 0.8748E-01                                 1377800200117 
 0.3686E+01 0.6689E+01 0.9153E-01                                 1377800200118 
 0.3711E+01 0.6485E+01 0.9241E-01                                 1377800200119 
 0.3737E+01 0.6663E+01 0.9595E-01                                 1377800200120 
 0.3747E+01 0.6543E+01 0.9115E-01                                 1377800200121 
 0.3787E+01 0.6767E+01 0.9428E-01                                 1377800200122 
 0.3812E+01 0.6653E+01 0.9238E-01                                 1377800200123 
 0.3837E+01 0.6392E+01 0.9583E-01                                 1377800200124 
 0.3862E+01 0.6456E+01 0.1320E+00                                 1377800200125 
 0.3887E+01 0.6621E+01 0.1035E+00                                 1377800200126 
 0.3937E+01 0.6595E+01 0.1138E+00                                 1377800200127 
 0.3962E+01 0.6747E+01 0.1309E+00                                 1377800200128 
 0.3987E+01 0.6652E+01 0.1081E+00                                 1377800200129 
 0.4012E+01 0.6284E+01 0.1063E+00                                 1377800200130 
 0.4032E+01 0.6410E+01 0.1079E+00                                 1377800200131 
 0.4062E+01 0.6532E+01 0.1038E+00                                 1377800200132 
 0.4087E+01 0.6628E+01 0.1108E+00                                 1377800200133 
 0.4112E+01 0.6381E+01 0.1065E+00                                 1377800200134 
 0.4137E+01 0.6123E+01 0.1236E+00                                 1377800200135 
 0.4162E+01 0.6442E+01 0.1091E+00                                 1377800200136 
 0.4186E+01 0.6514E+01 0.1144E+00                                 1377800200137 
 0.4216E+01 0.6531E+01 0.1074E+00                                 1377800200138 
 0.4241E+01 0.6214E+01 0.1142E+00                                 1377800200139 
 0.4266E+01 0.6384E+01 0.1118E+00                                 1377800200140 
 0.4290E+01 0.6392E+01 0.1179E+00                                 1377800200141 
 0.4315E+01 0.6489E+01 0.1005E+00                                 1377800200142 
 0.4340E+01 0.6301E+01 0.1248E+00                                 1377800200143 
 0.4369E+01 0.6031E+01 0.1179E+00                                 1377800200144 
 0.4394E+01 0.6240E+01 0.1209E+00                                 1377800200145 
 0.4419E+01 0.6250E+01 0.1178E+00                                 1377800200146 
 0.4443E+01 0.6011E+01 0.1204E+00                                 1377800200147 
 0.4473E+01 0.6303E+01 0.1221E+00                                 1377800200148 
 0.4497E+01 0.6022E+01 0.1213E+00                                 1377800200149 
ENDDATA            140          0                                 1377800200150 
ENDSUBENT          149          0                                 1377800299999 
SUBENT        13778003   20011126                             00001377800300001 
BIB                  8         12                                 1377800300002 
REACTION   (72-HF-0(N,EL)72-HF-0,,DA)                             1377800300003 
INC-SOURCE (D-D)                                                  1377800300004 
INC-SPECT  Pulsed source. Energy resolution about 300 keV at 4.5  1377800300005 
            MeV, decreasing to 100 keV at 10.0 MeV.               1377800300006 
SAMPLE     High-purity metallic hafnium.                          1377800300007 
DETECTOR   (SCIN) Liquid scintillation detectors.                 1377800300008 
MONITOR    (1-H-1(N,EL)1-H-1,,DA)                                 1377800300009 
MONIT-REF  (,CONDE+,R,IAEA-227,1983)                              1377800300010 
CORRECTION Corrected for angular resolution, multiple events, and 1377800300011 
            beam attenuation.                                     1377800300012 
           Not corrected for inelastic scattering contamination   1377800300013 
            up to 450 keV excitation energy.                      1377800300014 
ENDBIB              12          0                                 1377800300015 
NOCOMMON             0          0                                 1377800300016 
DATA                 4        480                                 1377800300017 
EN         ANG        DATA       DATA-ERR                         1377800300018 
MEV        ADEG       B/SR       PER-CENT                         1377800300019 
   4.51      17.37       3.6720     3.02                          1377800300020 
   4.51      21.32       2.8200     3.03                          1377800300021 
   4.51      25.28       2.0100     3.03                          1377800300022 
   4.51      27.26       1.6560     3.03                          1377800300023 
   4.51      29.25       1.3220     3.04                          1377800300024 
   4.51      31.24       1.1090     3.04                          1377800300025 
   4.51      35.22       0.6854     3.06                          1377800300026 
   4.51      39.20       0.4168     3.08                          1377800300027 
   4.51      42.69       0.2858     3.10                          1377800300028 
   4.51      46.68       0.2091     3.15                          1377800300029 
   4.51      50.67       0.1689     3.17                          1377800300030 
   4.51      54.66       0.1411     3.18                          1377800300031 
   4.51      58.15       0.1316     3.19                          1377800300032 
   4.51      62.14       0.1107     3.23                          1377800300033 
   4.51      66.14       0.09291    3.25                          1377800300034 
   4.51      70.13       0.07368    3.88                          1377800300035 
   4.51      73.62       0.06697    4.16                          1377800300036 
   4.51      77.62       0.06635    4.23                          1377800300037 
   4.51      81.61       0.07218    4.07                          1377800300038 
   4.51      85.61       0.08511    3.65                          1377800300039 
   4.51      89.10       0.09673    3.32                          1377800300040 
   4.51      93.09       0.1058     3.22                          1377800300041 
   4.51      97.09       0.1129     3.21                          1377800300042 
   4.51     101.10       0.1060     3.22                          1377800300043 
   4.51     105.10       0.09507    3.39                          1377800300044 
   4.51     109.10       0.07883    3.93                          1377800300045 
   4.51     113.10       0.06279    4.75                          1377800300046 
   4.51     117.10       0.04288    6.46                          1377800300047 
   4.51     120.00       0.03401    7.63                          1377800300048 
   4.51     124.00       0.02679    9.21                          1377800300049 
   4.51     128.00       0.02665    9.48                          1377800300050 
   4.51     132.00       0.03130    8.47                          1377800300051 
   4.51     135.50       0.03630    7.67                          1377800300052 
   4.51     139.50       0.04281    6.90                          1377800300053 
   4.51     143.50       0.04788    6.39                          1377800300054 
   4.51     145.50       0.04761    6.38                          1377800300055 
   4.51     147.50       0.04904    6.25                          1377800300056 
   4.51     149.50       0.04762    6.48                          1377800300057 
   4.51     153.40       0.04704    6.54                          1377800300058 
   4.51     157.40       0.04344    6.98                          1377800300059 
   5.01      17.37       3.6870     3.02                          1377800300060 
   5.01      21.32       2.6660     3.03                          1377800300061 
   5.01      25.28       2.0270     3.03                          1377800300062 
   5.01      27.26       1.5510     3.03                          1377800300063 
   5.01      29.25       1.2120     3.04                          1377800300064 
   5.01      31.24       0.9551     3.04                          1377800300065 
   5.01      35.22       0.6403     3.07                          1377800300066 
   5.01      39.20       0.3532     3.09                          1377800300067 
   5.01      42.69       0.2538     3.12                          1377800300068 
   5.01      46.68       0.1889     3.15                          1377800300069 
   5.01      50.67       0.1752     3.16                          1377800300070 
   5.01      54.66       0.1590     3.17                          1377800300071 
   5.01      58.15       0.1462     3.17                          1377800300072 
   5.01      62.14       0.1170     3.21                          1377800300073 
   5.01      66.14       0.09367    3.24                          1377800300074 
   5.01      70.13       0.07038    3.40                          1377800300075 
   5.01      73.62       0.05899    3.87                          1377800300076 
   5.01      77.62       0.05978    3.89                          1377800300077 
   5.01      81.61       0.06440    3.77                          1377800300078 
   5.01      85.61       0.08266    3.26                          1377800300079 
   5.01      89.10       0.09759    3.23                          1377800300080 
   5.01      93.09       0.1078     3.21                          1377800300081 
   5.01      97.09       0.1084     3.21                          1377800300082 
   5.01     101.10       0.1075     3.22                          1377800300083 
   5.01     105.10       0.09681    3.24                          1377800300084 
   5.01     109.10       0.07789    3.42                          1377800300085 
   5.01     113.10       0.05846    4.30                          1377800300086 
   5.01     117.10       0.03961    5.76                          1377800300087 
   5.01     120.00       0.02867    7.34                          1377800300088 
   5.01     124.00       0.01924    9.81                          1377800300089 
   5.01     128.00       0.01986    9.59                          1377800300090 
   5.01     132.00       0.02697    7.98                          1377800300091 
   5.01     135.50       0.03758    6.28                          1377800300092 
   5.01     139.50       0.04544    5.62                          1377800300093 
   5.01     143.50       0.05143    5.18                          1377800300094 
   5.01     145.50       0.05535    4.91                          1377800300095 
   5.01     147.50       0.05179    5.18                          1377800300096 
   5.01     149.50       0.05123    5.22                          1377800300097 
   5.01     153.40       0.04584    5.70                          1377800300098 
   5.01     157.40       0.04121    6.27                          1377800300099 
   5.51      17.37       3.3350     3.03                          1377800300100 
   5.51      21.32       2.3500     3.03                          1377800300101 
   5.51      25.28       1.5520     3.03                          1377800300102 
   5.51      27.26       1.2270     3.04                          1377800300103 
   5.51      29.25       0.9207     3.05                          1377800300104 
   5.51      31.24       0.7216     3.06                          1377800300105 
   5.51      35.22       0.4193     3.09                          1377800300106 
   5.51      39.20       0.2665     3.12                          1377800300107 
   5.51      42.69       0.2213     3.14                          1377800300108 
   5.51      46.68       0.2004     3.15                          1377800300109 
   5.51      50.67       0.1937     3.15                          1377800300110 
   5.51      54.66       0.1737     3.15                          1377800300111 
   5.51      58.15       0.1533     3.17                          1377800300112 
   5.51      62.14       0.1168     3.21                          1377800300113 
   5.51      66.14       0.08515    3.26                          1377800300114 
   5.51      70.13       0.06516    3.72                          1377800300115 
   5.51      73.62       0.05685    4.15                          1377800300116 
   5.51      77.62       0.05909    4.11                          1377800300117 
   5.51      81.61       0.06817    3.74                          1377800300118 
   5.51      85.61       0.08370    3.25                          1377800300119 
   5.51      89.10       0.09748    3.23                          1377800300120 
   5.51      93.09       0.1079     3.21                          1377800300121 
   5.51      97.09       0.1057     3.21                          1377800300122 
   5.51     101.10       0.09889    3.24                          1377800300123 
   5.51     105.10       0.08477    3.27                          1377800300124 
   5.51     109.10       0.06663    3.92                          1377800300125 
   5.51     113.10       0.04833    5.11                          1377800300126 
   5.51     117.10       0.03107    7.20                          1377800300127 
   5.51     120.00       0.02274    9.22                          1377800300128 
   5.51     124.00       0.02179    9.35                          1377800300129 
   5.51     128.00       0.02342    9.08                          1377800300130 
   5.51     132.00       0.03436    6.91                          1377800300131 
   5.51     135.50       0.04272    5.94                          1377800300132 
   5.51     139.50       0.05515    5.04                          1377800300133 
   5.51     143.50       0.05720    4.86                          1377800300134 
   5.51     145.50       0.05722    4.86                          1377800300135 
   5.51     147.50       0.05359    5.13                          1377800300136 
   5.51     149.50       0.05240    5.25                          1377800300137 
   5.51     153.40       0.04347    6.10                          1377800300138 
   5.51     157.40       0.03476    7.27                          1377800300139 
   5.91      17.37       3.4880     3.02                          1377800300140 
   5.91      21.32       2.4120     3.03                          1377800300141 
   5.91      25.28       1.5480     3.03                          1377800300142 
   5.91      27.26       1.2090     3.04                          1377800300143 
   5.91      29.25       0.9102     3.05                          1377800300144 
   5.91      31.24       0.6837     3.06                          1377800300145 
   5.91      35.22       0.3916     3.10                          1377800300146 
   5.91      39.20       0.2598     3.12                          1377800300147 
   5.91      42.69       0.2088     3.14                          1377800300148 
   5.91      46.68       0.2049     3.15                          1377800300149 
   5.91      50.67       0.2046     3.14                          1377800300150 
   5.91      54.66       0.1901     3.15                          1377800300151 
   5.91      58.15       0.1628     3.16                          1377800300152 
   5.91      62.14       0.1226     3.20                          1377800300153 
   5.91      66.14       0.08729    3.25                          1377800300154 
   5.91      70.13       0.06241    3.76                          1377800300155 
   5.91      73.62       0.06018    3.93                          1377800300156 
   5.91      77.62       0.06061    3.95                          1377800300157 
   5.91      81.61       0.07215    3.55                          1377800300158 
   5.91      85.61       0.08646    3.25                          1377800300159 
   5.91      89.10       0.09989    3.22                          1377800300160 
   5.91      93.09       0.1069     3.21                          1377800300161 
   5.91      97.09       0.1032     3.21                          1377800300162 
   5.91     101.10       0.09397    3.24                          1377800300163 
   5.91     105.10       0.08111    3.30                          1377800300164 
   5.91     109.10       0.06364    4.03                          1377800300165 
   5.91     113.10       0.04274    5.48                          1377800300166 
   5.91     117.10       0.03140    7.03                          1377800300167 
   5.91     120.00       0.02136    9.63                          1377800300168 
   5.91     124.00       0.02098    9.52                          1377800300169 
   5.91     128.00       0.02328    8.84                          1377800300170 
   5.91     132.00       0.03217    7.34                          1377800300171 
   5.91     135.50       0.04655    5.52                          1377800300172 
   5.91     139.50       0.05246    5.08                          1377800300173 
   5.91     143.50       0.05762    4.76                          1377800300174 
   5.91     145.50       0.05995    4.60                          1377800300175 
   5.91     147.50       0.05571    4.91                          1377800300176 
   5.91     149.50       0.05197    5.24                          1377800300177 
   5.91     153.40       0.04249    6.10                          1377800300178 
   5.91     157.40       0.03260    7.41                          1377800300179 
   6.51      17.37       3.2050     3.03                          1377800300180 
   6.51      21.32       2.1210     3.03                          1377800300181 
   6.51      25.28       1.2240     3.04                          1377800300182 
   6.51      27.26       0.9445     3.05                          1377800300183 
   6.51      29.25       0.6767     3.07                          1377800300184 
   6.51      31.24       0.4900     3.07                          1377800300185 
   6.51      35.22       0.2673     3.13                          1377800300186 
   6.51      39.20       0.2065     3.15                          1377800300187 
   6.51      42.69       0.2073     3.15                          1377800300188 
   6.51      46.68       0.2251     3.14                          1377800300189 
   6.51      50.67       0.2258     3.13                          1377800300190 
   6.51      54.66       0.2004     3.14                          1377800300191 
   6.51      58.15       0.1608     3.15                          1377800300192 
   6.51      62.14       0.1131     3.22                          1377800300193 
   6.51      66.14       0.07595    3.87                          1377800300194 
   6.51      70.13       0.05722    4.82                          1377800300195 
   6.51      73.62       0.05499    5.07                          1377800300196 
   6.51      77.62       0.06391    4.61                          1377800300197 
   6.51      81.61       0.07891    3.96                          1377800300198 
   6.51      85.61       0.09283    3.48                          1377800300199 
   6.51      89.10       0.1023     3.22                          1377800300200 
   6.51      93.09       0.1016     3.25                          1377800300201 
   6.51      97.09       0.08959    3.60                          1377800300202 
   6.51     101.10       0.07816    4.10                          1377800300203 
   6.51     105.10       0.06472    4.72                          1377800300204 
   6.51     109.10       0.04799    6.04                          1377800300205 
   6.51     113.10       0.03445    8.03                          1377800300206 
   6.51     117.10       0.02493   10.48                          1377800300207 
   6.51     120.00       0.02152   11.76                          1377800300208 
   6.51     124.00       0.02189   11.65                          1377800300209 
   6.51     128.00       0.02855    9.68                          1377800300210 
   6.51     132.00       0.03670    7.93                          1377800300211 
   6.51     135.50       0.04352    6.99                          1377800300212 
   6.51     139.50       0.05307    6.03                          1377800300213 
   6.51     143.50       0.05206    6.13                          1377800300214 
   6.51     145.50       0.05382    5.96                          1377800300215 
   6.51     147.50       0.05090    6.24                          1377800300216 
   6.51     149.50       0.04700    6.67                          1377800300217 
   6.51     153.40       0.03548    8.40                          1377800300218 
   6.51     157.40       0.02546   10.80                          1377800300219 
   7.14      17.37       3.1610     3.03                          1377800300220 
   7.14      21.32       2.0600     3.03                          1377800300221 
   7.14      25.28       1.0680     3.04                          1377800300222 
   7.14      27.26       0.7519     3.06                          1377800300223 
   7.14      29.25       0.5402     3.08                          1377800300224 
   7.14      31.24       0.3786     3.09                          1377800300225 
   7.14      35.22       0.2185     3.15                          1377800300226 
   7.14      39.20       0.2067     3.15                          1377800300227 
   7.14      42.69       0.2324     3.14                          1377800300228 
   7.14      46.68       0.2664     3.12                          1377800300229 
   7.14      50.67       0.2594     3.12                          1377800300230 
   7.14      54.66       0.2153     3.13                          1377800300231 
   7.14      58.15       0.1625     3.15                          1377800300232 
   7.14      62.14       0.1091     3.23                          1377800300233 
   7.14      66.14       0.06884    3.51                          1377800300234 
   7.14      70.13       0.05612    4.17                          1377800300235 
   7.14      73.62       0.06162    3.94                          1377800300236 
   7.14      77.62       0.07733    3.37                          1377800300237 
   7.14      81.61       0.09299    3.24                          1377800300238 
   7.14      85.61       0.1042     3.21                          1377800300239 
   7.14      89.10       0.1062     3.21                          1377800300240 
   7.14      93.09       0.09582    3.23                          1377800300241 
   7.14      97.09       0.07789    3.41                          1377800300242 
   7.14     101.10       0.06472    4.02                          1377800300243 
   7.14     105.10       0.04996    4.95                          1377800300244 
   7.14     109.10       0.03745    6.23                          1377800300245 
   7.14     113.10       0.03046    7.61                          1377800300246 
   7.14     117.10       0.02538    8.65                          1377800300247 
   7.14     120.00       0.02315    9.55                          1377800300248 
   7.14     124.00       0.02596    8.74                          1377800300249 
   7.14     128.00       0.02920    8.10                          1377800300250 
   7.14     132.00       0.03691    6.70                          1377800300251 
   7.14     135.50       0.04390    5.93                          1377800300252 
   7.14     139.50       0.04849    5.51                          1377800300253 
   7.14     143.50       0.04793    5.64                          1377800300254 
   7.14     145.50       0.04642    5.74                          1377800300255 
   7.14     147.50       0.04430    6.02                          1377800300256 
   7.14     149.50       0.04054    6.54                          1377800300257 
   7.14     153.40       0.03164    7.85                          1377800300258 
   7.14     157.40       0.02258   10.30                          1377800300259 
   7.51      17.37       0.3234    10.30                          1377800300260 
   7.51      21.32       1.9960     3.03                          1377800300261 
   7.51      25.28       1.0170     3.04                          1377800300262 
   7.51      27.26       0.7022     3.06                          1377800300263 
   7.51      29.25       0.5094     3.09                          1377800300264 
   7.51      31.24       0.3333     3.10                          1377800300265 
   7.51      35.22       0.1944     3.16                          1377800300266 
   7.51      39.20       0.2059     3.15                          1377800300267 
   7.51      42.69       0.2542     3.13                          1377800300268 
   7.51      46.68       0.2959     3.11                          1377800300269 
   7.51      50.67       0.2803     3.11                          1377800300270 
   7.51      54.66       0.2318     3.12                          1377800300271 
   7.51      58.15       0.1681     3.14                          1377800300272 
   7.51      62.14       0.1056     3.22                          1377800300273 
   7.51      66.14       0.06449    4.32                          1377800300274 
   7.51      70.13       0.05509    4.94                          1377800300275 
   7.51      73.62       0.06285    4.53                          1377800300276 
   7.51      77.62       0.08134    3.78                          1377800300277 
   7.51      81.61       0.09942    3.25                          1377800300278 
   7.51      85.61       0.1066     3.21                          1377800300279 
   7.51      89.10       0.1040     3.21                          1377800300280 
   7.51      93.09       0.09331    3.45                          1377800300281 
   7.51      97.09       0.07193    4.27                          1377800300282 
   7.51     101.10       0.05634    5.22                          1377800300283 
   7.51     105.10       0.04369    6.42                          1377800300284 
   7.51     109.10       0.03339    8.14                          1377800300285 
   7.51     113.10       0.02757    9.61                          1377800300286 
   7.51     117.10       0.02632   10.16                          1377800300287 
   7.51     120.00       0.02551   10.51                          1377800300288 
   7.51     124.00       0.02681   10.16                          1377800300289 
   7.51     128.00       0.02933    9.43                          1377800300290 
   7.51     132.00       0.03605    8.11                          1377800300291 
   7.51     135.50       0.03968    7.65                          1377800300292 
   7.51     139.50       0.04339    7.07                          1377800300293 
   7.51     143.50       0.04378    7.07                          1377800300294 
   7.51     145.50       0.04178    7.32                          1377800300295 
   7.51     147.50       0.03908    7.67                          1377800300296 
   7.51     149.50       0.03539    8.28                          1377800300297 
   7.51     153.40       0.02711   10.25                          1377800300298 
   7.51     157.40       0.02072   12.52                          1377800300299 
   8.03      17.37       3.2100     3.03                          1377800300300 
   8.03      21.32       1.8750     3.03                          1377800300301 
   8.03      25.28       0.9238     3.05                          1377800300302 
   8.03      27.26       0.6199     3.07                          1377800300303 
   8.03      29.25       0.3745     3.11                          1377800300304 
   8.03      31.24       0.2626     3.12                          1377800300305 
   8.03      35.22       0.1819     3.18                          1377800300306 
   8.03      39.20       0.2265     3.15                          1377800300307 
   8.03      42.69       0.2830     3.12                          1377800300308 
   8.03      46.68       0.3204     3.10                          1377800300309 
   8.03      50.67       0.2967     3.10                          1377800300310 
   8.03      54.66       0.2280     3.12                          1377800300311 
   8.03      58.15       0.1639     3.15                          1377800300312 
   8.03      62.14       0.09637    3.24                          1377800300313 
   8.03      66.14       0.05941    3.86                          1377800300314 
   8.03      70.13       0.05442    4.22                          1377800300315 
   8.03      73.62       0.06927    3.61                          1377800300316 
   8.03      77.62       0.09060    3.24                          1377800300317 
   8.03      81.61       0.1094     3.21                          1377800300318 
   8.03      85.61       0.1076     3.20                          1377800300319 
   8.03      89.10       0.1042     3.22                          1377800300320 
   8.03      93.09       0.08470    3.25                          1377800300321 
   8.03      97.09       0.06319    4.01                          1377800300322 
   8.03     101.10       0.04553    5.34                          1377800300323 
   8.03     105.10       0.03373    6.80                          1377800300324 
   8.03     109.10       0.02975    7.56                          1377800300325 
   8.03     113.10       0.02867    7.99                          1377800300326 
   8.03     117.10       0.02833    8.27                          1377800300327 
   8.03     120.00       0.03097    7.70                          1377800300328 
   8.03     124.00       0.02997    7.92                          1377800300329 
   8.03     128.00       0.03153    7.54                          1377800300330 
   8.03     132.00       0.03091    7.76                          1377800300331 
   8.03     135.50       0.03457    7.15                          1377800300332 
   8.03     139.50       0.03695    6.83                          1377800300333 
   8.03     143.50       0.03571    7.12                          1377800300334 
   8.03     145.50       0.03508    7.18                          1377800300335 
   8.03     147.50       0.03221    7.72                          1377800300336 
   8.03     149.50       0.02875    8.48                          1377800300337 
   8.03     153.40       0.02181   10.21                          1377800300338 
   8.03     157.40       0.01854   11.55                          1377800300339 
   8.41      17.47       3.1190     3.03                          1377800300340 
   8.41      21.42       1.7530     3.03                          1377800300341 
   8.41      25.38       0.8458     3.05                          1377800300342 
   8.41      27.36       0.5464     3.08                          1377800300343 
   8.41      29.35       0.3499     3.12                          1377800300344 
   8.41      31.34       0.2231     3.13                          1377800300345 
   8.41      35.32       0.1501     3.19                          1377800300346 
   8.41      39.30       0.2129     3.16                          1377800300347 
   8.41      42.79       0.2721     3.13                          1377800300348 
   8.41      46.78       0.3056     3.10                          1377800300349 
   8.41      50.77       0.2877     3.11                          1377800300350 
   8.41      54.76       0.2175     3.12                          1377800300351 
   8.41      58.25       0.1593     3.15                          1377800300352 
   8.41      62.24       0.09457    3.25                          1377800300353 
   8.41      66.24       0.05762    3.33                          1377800300354 
   8.41      70.23       0.05309    3.37                          1377800300355 
   8.41      73.72       0.06293    3.32                          1377800300356 
   8.41      77.72       0.08098    3.27                          1377800300357 
   8.41      81.71       0.09528    3.23                          1377800300358 
   8.41      85.71       0.09832    3.23                          1377800300359 
   8.41      89.20       0.09039    3.26                          1377800300360 
   8.41      93.19       0.07155    3.30                          1377800300361 
   8.41      97.19       0.04964    3.73                          1377800300362 
   8.41     101.20       0.03639    4.87                          1377800300363 
   8.41     105.20       0.02801    6.04                          1377800300364 
   8.41     109.20       0.02287    7.19                          1377800300365 
   8.41     113.20       0.02243    7.42                          1377800300366 
   8.41     117.20       0.02501    6.83                          1377800300367 
   8.41     120.10       0.02240    7.57                          1377800300368 
   8.41     124.10       0.02366    7.38                          1377800300369 
   8.41     128.10       0.02322    7.43                          1377800300370 
   8.41     132.10       0.02602    7.01                          1377800300371 
   8.41     135.60       0.02818    6.60                          1377800300372 
   8.41     139.60       0.02944    6.48                          1377800300373 
   8.41     143.60       0.02792    6.76                          1377800300374 
   8.41     145.60       0.02817    6.74                          1377800300375 
   8.41     147.60       0.02567    7.25                          1377800300376 
   8.41     149.60       0.02465    7.43                          1377800300377 
   8.41     153.50       0.01783    9.27                          1377800300378 
   8.41     157.50       0.01587    9.89                          1377800300379 
   9.06      17.37       3.2420     3.03                          1377800300380 
   9.06      21.32       1.6890     3.04                          1377800300381 
   9.06      25.28       0.6592     3.06                          1377800300382 
   9.06      27.26       0.4398     3.10                          1377800300383 
   9.06      29.25       0.2295     3.15                          1377800300384 
   9.06      31.24       0.1820     3.16                          1377800300385 
   9.06      35.22       0.1652     3.18                          1377800300386 
   9.06      39.20       0.2682     3.13                          1377800300387 
   9.06      42.69       0.3442     3.10                          1377800300388 
   9.06      46.68       0.3653     3.09                          1377800300389 
   9.06      50.67       0.3100     3.10                          1377800300390 
   9.06      54.66       0.2130     3.12                          1377800300391 
   9.06      58.15       0.1424     3.16                          1377800300392 
   9.06      62.14       0.08046    3.28                          1377800300393 
   9.06      66.14       0.05036    4.38                          1377800300394 
   9.06      70.13       0.05496    4.21                          1377800300395 
   9.06      73.62       0.07730    3.34                          1377800300396 
   9.06      77.62       0.09659    3.23                          1377800300397 
   9.06      81.61       0.1045     3.21                          1377800300398 
   9.06      85.61       0.09692    3.23                          1377800300399 
   9.06      89.10       0.08773    3.27                          1377800300400 
   9.06      93.09       0.06441    3.94                          1377800300401 
   9.06      97.09       0.04049    5.74                          1377800300402 
   9.06     101.10       0.02686    8.09                          1377800300403 
   9.06     105.10       0.02359    9.18                          1377800300404 
   9.06     109.10       0.02339    9.40                          1377800300405 
   9.06     113.10       0.02584    8.81                          1377800300406 
   9.06     117.10       0.02987    7.99                          1377800300407 
   9.06     120.00       0.03241    7.53                          1377800300408 
   9.06     124.00       0.03053    7.97                          1377800300409 
   9.06     128.00       0.02504    9.24                          1377800300410 
   9.06     132.00       0.02284   10.02                          1377800300411 
   9.06     135.50       0.02459    9.34                          1377800300412 
   9.06     139.50       0.02238   10.12                          1377800300413 
   9.06     143.50       0.02061   11.08                          1377800300414 
   9.06     145.50       0.02060   11.10                          1377800300415 
   9.06     147.50       0.01958   11.41                          1377800300416 
   9.06     149.50       0.01849   11.72                          1377800300417 
   9.06     153.40       0.01313   14.61                          1377800300418 
   9.06     157.40       0.01514   12.85                          1377800300419 
   9.51      17.37       2.7790     3.03                          1377800300420 
   9.51      21.32       1.4690     3.04                          1377800300421 
   9.51      25.28       0.5275     3.07                          1377800300422 
   9.51      27.26       0.3412     3.11                          1377800300423 
   9.51      29.25       0.2235     3.17                          1377800300424 
   9.51      31.24       0.1530     3.19                          1377800300425 
   9.51      35.22       0.1694     3.18                          1377800300426 
   9.51      39.20       0.3052     3.13                          1377800300427 
   9.51      42.69       0.3654     3.10                          1377800300428 
   9.51      46.68       0.3670     3.09                          1377800300429 
   9.51      50.67       0.2762     3.10                          1377800300430 
   9.51      54.66       0.2089     3.13                          1377800300431 
   9.51      58.15       0.1203     3.19                          1377800300432 
   9.51      62.14       0.06542    4.29                          1377800300433 
   9.51      66.14       0.03853    6.92                          1377800300434 
   9.51      70.13       0.05864    5.02                          1377800300435 
   9.51      73.62       0.07996    3.97                          1377800300436 
   9.51      77.62       0.09599    3.44                          1377800300437 
   9.51      81.61       0.09236    3.57                          1377800300438 
   9.51      85.61       0.09399    3.52                          1377800300439 
   9.51      89.10       0.07394    4.31                          1377800300440 
   9.51      93.09       0.05263    5.73                          1377800300441 
   9.51      97.09       0.03053    9.10                          1377800300442 
   9.51     101.10       0.02443   10.95                          1377800300443 
   9.51     105.10       0.01957   13.52                          1377800300444 
   9.51     109.10       0.02257   12.35                          1377800300445 
   9.51     113.10       0.02415   12.05                          1377800300446 
   9.51     117.10       0.03189    9.43                          1377800300447 
   9.51     120.00       0.02968   10.26                          1377800300448 
   9.51     124.00       0.02808   10.71                          1377800300449 
   9.51     128.00       0.01798   16.10                          1377800300450 
   9.51     132.00       0.02182   13.14                          1377800300451 
   9.51     135.50       0.01817   15.61                          1377800300452 
   9.51     139.50       0.01831   15.59                          1377800300453 
   9.51     143.50       0.01666   17.13                          1377800300454 
   9.51     145.50       0.01697   16.58                          1377800300455 
   9.51     147.50       0.01732   16.41                          1377800300456 
   9.51     149.50       0.01725   16.65                          1377800300457 
   9.51     153.40       0.01416   19.92                          1377800300458 
   9.51     157.40       0.01702   16.70                          1377800300459 
   9.99      17.37       2.9220     3.03                          1377800300460 
   9.99      21.32       1.4800     3.04                          1377800300461 
   9.99      25.28       0.6266     3.07                          1377800300462 
   9.99      27.26       0.3299     3.11                          1377800300463 
   9.99      29.25       0.2302     3.16                          1377800300464 
   9.99      31.24       0.1549     3.17                          1377800300465 
   9.99      35.22       0.2161     3.16                          1377800300466 
   9.99      39.20       0.3323     3.11                          1377800300467 
   9.99      42.69       0.4071     3.09                          1377800300468 
   9.99      46.68       0.4000     3.08                          1377800300469 
   9.99      50.67       0.3191     3.10                          1377800300470 
   9.99      54.66       0.2139     3.12                          1377800300471 
   9.99      58.15       0.1142     3.17                          1377800300472 
   9.99      62.14       0.06352    3.65                          1377800300473 
   9.99      66.14       0.05164    4.35                          1377800300474 
   9.99      70.13       0.05976    4.12                          1377800300475 
   9.99      73.62       0.08918    3.26                          1377800300476 
   9.99      77.62       0.1018     3.23                          1377800300477 
   9.99      81.61       0.1051     3.22                          1377800300478 
   9.99      85.61       0.09323    3.26                          1377800300479 
   9.99      89.10       0.06714    3.92                          1377800300480 
   9.99      93.09       0.04775    5.11                          1377800300481 
   9.99      97.09       0.03145    7.16                          1377800300482 
   9.99     101.10       0.02144    9.98                          1377800300483 
   9.99     105.10       0.01877   11.53                          1377800300484 
   9.99     109.10       0.02225   10.27                          1377800300485 
   9.99     113.10       0.02929    8.38                          1377800300486 
   9.99     117.10       0.03171    7.86                          1377800300487 
   9.99     120.00       0.03088    8.08                          1377800300488 
   9.99     124.00       0.02845    8.75                          1377800300489 
   9.99     128.00       0.02420    9.97                          1377800300490 
   9.99     132.00       0.02062   11.45                          1377800300491 
   9.99     135.50       0.01662   13.75                          1377800300492 
   9.99     139.50       0.01609   13.95                          1377800300493 
   9.99     143.50       0.01856   12.51                          1377800300494 
   9.99     145.50       0.01619   14.34                          1377800300495 
   9.99     147.50       0.01935   12.31                          1377800300496 
   9.99     149.50       0.01652   14.28                          1377800300497 
   9.99     153.40       0.01941   11.79                          1377800300498 
   9.99     157.40       0.01741   13.15                          1377800300499 
ENDDATA            482          0                                 1377800300500 
ENDSUBENT          499          0                                 1377800399999 
ENDENTRY             3          0                                 1377899999999 
