ENTRY            13922   20120808                             13851392200000001 
SUBENT        13922001   20120808                             13851392200100001 
BIB                  5         10                                 1392200100002 
INSTITUTE  (1USABNL,1USASTB,2FR ILL)                              1392200100003 
REFERENCE  (J,NP/A,323,349,197907)                                1392200100004 
AUTHOR     (J.A.Cizewski,R.F.Casten,G.J.Smith,M.R.Macphail,       1392200100005 
            M.L.Stelts,W.R.Kane, H.G.Borner,W.F.Davidson)         1392200100006 
TITLE      The Level Structure of 196Pt                           1392200100007 
HISTORY    (20041118C) DR                                         1392200100008 
           (20050427A) Data units corrected in Subents 2-6.       1392200100009 
           (20120808A) SD: Energy units were corrected (MEV ->    1392200100010 
           KEV) in Subents 2-5.                                   1392200100011 
           EN from COMMON section was deleted in Subent 5.        1392200100012 
ENDBIB              10          0                                 1392200100013 
NOCOMMON             0          0                                 1392200100014 
ENDSUBENT           13          0                                 1392200199999 
SUBENT        13922002   20120809                             13851392200200001 
BIB                 12         37                                 1392200200002 
REACTION   (78-PT-195(N,G)78-PT-196,,SPC,,SPA/REL)                1392200200003 
INC-SPECT  Reactor Spectrum                                       1392200200004 
FACILITY   (REAC,1USABNL) High Flux Beam Reactor filtered beam    1392200200005 
            facility, Bi single crystal filter, for gamma rays    1392200200006 
            from 300 to 2500 keV.                                 1392200200007 
           (REAC,2FR ILL) High Flux Reactor for gamma-rays up     1392200200008 
            to 1500 keV.                                          1392200200009 
DETECTOR   (GELI) Ge(Li) 40cm3 detector at BNL. Ge(Li) has a      1392200200010 
            typical resolution of 2.5 keV at 1.33 MeV.            1392200200011 
           (NAICR) NaI(Tl) scintillators at ILL                   1392200200012 
SAMPLE     Both natural and enriched (97.28% 195Pt) with various  1392200200013 
            weights were used at BNL.                             1392200200014 
           Enriched (97.28% 195Pt) targets in an aluminum frame   1392200200015 
            at ILL                                                1392200200016 
ANALYSIS   Gamma-ray energies from 300 to 1500 keV were measured  1392200200017 
            with Ge(Li) and NaI(Tl); gamma-ray energies from      1392200200018 
            1500 keV up to 2500 keV were measured with Ge(Li)     1392200200019 
            and gamma-ray energies below 300 keV were measured    1392200200020 
            with NaI(Tl)                                          1392200200021 
ERR-ANALYS (DATA-ERR) No information given                        1392200200022 
CORRECTION Relative intensity normalized to 1000 units for 355 keV1392200200023 
            transition. Energy calibration was performed with a   1392200200024 
            calibrated precision pulser and standard radioactive  1392200200025 
            sources. The efficiency calibration of Ge(Li)         1392200200026 
            detectors was based on the method described in        1392200200027 
            REL-REF                                               1392200200028 
REL-REF    (R,,W.R.Kane,J,NIM,56,189,1967)                        1392200200029 
STATUS     Data taken from table 1 of the journal                 1392200200030 
           article                                                1392200200031 
FLAG       (1.) Questionable line                                 1392200200032 
           (2.) Intensity corrected by nearby impurity.           1392200200033 
           (3.) Pair of partially resolved lines. The quoted      1392200200034 
            energies and intensities are the best estimates for   1392200200035 
            the components.                                       1392200200036 
HISTORY    (20050427A) Data units corrected.                      1392200200037 
           (20120808A) SD: Energy units corrected (MEV -> KEV)    1392200200038 
           SF8=REL -> SPA/REL in REACTION code.                   1392200200039 
ENDBIB              37          0                                 1392200200040 
COMMON               1          3                                 1392200200041 
EN-DUMMY                                                          1392200200042 
EV                                                                1392200200043 
0.0253                                                            1392200200044 
ENDCOMMON            3          0                                 1392200200045 
DATA                 5        239                                 1392200200046 
E          E-ERR      DATA       DATA-ERR   FLAG                  1392200200047 
KEV        KEV        ARB-UNITS  ARB-UNITS  NO-DIM                1392200200048 
 138.178   0.004         1.1      0.3                             1392200200049 
 176.830   0.003         2.6      0.7                             1392200200050 
 191.164   0.006         0.9      0.3                             1392200200051 
 192.903   0.010         0.8      0.2                             1392200200052 
 201.769   0.006         0.7      0.2                             1392200200053 
 208.733   0.002         4.8      1.5                             1392200200054 
 209.642   0.006         1.2      0.4                             1392200200055 
 225.810   0.018         0.7      0.3                             1392200200056 
 226.270   0.003         1.3      0.3                             1392200200057 
 242.858   0.017         0.26     0.12                            1392200200058 
 243.119   0.018         0.20     0.10                            1392200200059 
 245.655   0.005         0.5      0.2                             1392200200060 
 276.376   0.021         0.28     0.10                            1392200200061 
 283.092   0.037         0.19     0.10                            1392200200062 
 290.539   0.049         0.22     0.10                            1392200200063 
 291.620   0.007         0.8      0.4                             1392200200064 
 293.522   0.010         0.8      0.3                             1392200200065 
 307.616   0.009         1.6      0.3                             1392200200066 
 310.588   0.008         0.4      0.2                             1392200200067 
 315.58    0.08          0.5      0.2                             1392200200068 
 316.265   0.030         0.9      0.5                             1392200200069 
 326.349   0.004        85.       7.                              1392200200070 
 332.983   0.002       411.      33.                              1392200200071 
 345.973   0.007         0.9      0.2                             1392200200072 
 346.541   0.003         6.6      1.1                             1392200200073 
 355.684   0.002      1000.                                       1392200200074 
 357.729   0.009         0.7      0.2       1.                    1392200200075 
 369.455   0.048         0.4      0.2                             1392200200076 
 370.765   0.044         0.18     0.13                            1392200200077 
 372.292   0.022         0.20     0.09                            1392200200078 
 378.675   0.014         3.2      0.4                             1392200200079 
 383.748   0.008         0.9      0.3                             1392200200080 
 385.161   0.013         0.8      0.3                             1392200200081 
 393.346   0.007        10.3      0.8                             1392200200082 
 402.130   0.007         1.3      0.2                             1392200200083 
 416.443   0.006         1.4      0.4                             1392200200084 
 418.102   0.028         0.7      0.2                             1392200200085 
 418.726   0.027         0.7      0.2                             1392200200086 
 423.004   0.027         1.3      0.2                             1392200200087 
 423.7     0.3           0.6      0.2                             1392200200088 
 430.2     0.3           0.60     0.14      1.                    1392200200089 
 431.982   0.024         2.6      0.4                             1392200200090 
 440.709   0.009         0.8      0.4                             1392200200091 
 443.258   0.009         1.0      0.2                             1392200200092 
 446.613   0.003        15.3      1.1                             1392200200093 
 456.425   0.024         0.56     0.12                            1392200200094 
 459.693   0.027         0.6      0.4                             1392200200095 
 461.863   0.026         0.27     0.6                             1392200200096 
 464.126   0.009         0.60     0.13                            1392200200097 
 470.567   0.019         0.15     0.05                            1392200200098 
 484.438   0.011         2.2      0.7                             1392200200099 
 484.707   0.025         1.4      0.4                             1392200200100 
 521.175   0.005        60.       6.                              1392200200101 
 522.440   0.011         3.7      1.0                             1392200200102 
 526.576   0.026         0.39     0.11                            1392200200103 
 540.333   0.026         1.0      0.2                             1392200200104 
 541.174   0.007         3.1      0.7                             1392200200105 
 541.942   0.020         0.7      0.2                             1392200200106 
 560.354   0.010         1.2      0.3                             1392200200107 
 566.174   0.008         3.6      0.9                             1392200200108 
 566.552   0.042         0.8      0.2                             1392200200109 
 568.849   0.028         0.40     0.13                            1392200200110 
 570.203   0.018         1.4      0.4                             1392200200111 
 587.423   0.017         0.6      0.3                             1392200200112 
 589.434   0.020         0.6      0.3                             1392200200113 
 590.00    0.09          0.6      0.4                             1392200200114 
 594.206   0.033         0.7      0.2                             1392200200115 
 604.616   0.007         8.3      0.7                             1392200200116 
 623.339   0.046         1.2      0.2                             1392200200117 
 626.636   0.018         1.2      0.2                             1392200200118 
 632.80    0.06          0.43     0.12                            1392200200119 
 639.701   0.032         0.50     0.11                            1392200200120 
 641.117   0.042         1.2      0.2                             1392200200121 
 645.950   0.030         1.6      0.4                             1392200200122 
 659.389   0.012         3.7      0.8                             1392200200123 
 662.188   0.016         1.9      0.4                             1392200200124 
 663.950   0.028         1.3      0.2                             1392200200125 
 665.988   0.024         1.0      0.5                             1392200200126 
 666.988   0.032         0.5      0.3                             1392200200127 
 672.900   0.007        30.       2.                              1392200200128 
 677.341   0.030         1.1      0.4                             1392200200129 
 690.403   0.012         2.4      0.4                             1392200200130 
 698.225   0.040         1.7      0.3                             1392200200131 
 705.652   0.036         0.9      0.2                             1392200200132 
 715.3     0.4           0.7      0.2                             1392200200133 
 726.0     0.7           1.8      0.4                             1392200200134 
 727.581   0.023         7.1      1.4                             1392200200135 
 748.66    0.06          1.0      0.4                             1392200200136 
 749.996   0.044         0.7      0.3                             1392200200137 
 752.823   0.014         2.0      0.3                             1392200200138 
 758.358   0.010         6.       2.                              1392200200139 
 761.482   0.016         2.3      0.3                             1392200200140 
 779.630   0.007        39.       3.                              1392200200141 
 800.375   0.047         0.8      0.2                             1392200200142 
 813.801   0.050         1.1      0.2                             1392200200143 
 817.112   0.020         3.3      0.3                             1392200200144 
 833.581   0.050         5.0      0.5                             1392200200145 
 849.74    0.09          0.7      0.2                             1392200200146 
 854.182   0.032         1.6      0.3                             1392200200147 
 864.72    0.08          0.72     0.15                            1392200200148 
 877.769   0.031         1.9      0.3                             1392200200149 
 915.80    0.06          6.5      0.6                             1392200200150 
 918.81    0.14          1.8      0.2                             1392200200151 
 937.62    0.07          1.4      0.2                             1392200200152 
 947.4     0.6           1.2      0.5                             1392200200153 
 955.37    0.13          0.60     0.12                            1392200200154 
 956.4     0.5           1.5      0.5                             1392200200155 
 961.4     0.3           1.9      0.5                             1392200200156 
 969.94    0.12          0.8      0.2                             1392200200157 
 976.34    0.05          1.7      0.3                             1392200200158 
 988.54    0.07          3.1      0.4                             1392200200159 
1005.894   0.020        24.       2.                              1392200200160 
1029.0     0.5           0.9      0.3                             1392200200161 
1031.93    0.08          2.0      0.4                             1392200200162 
1047.044   0.020        30.       2.                              1392200200163 
1048.3     0.7           4.       1.2                             1392200200164 
1055.91    0.14          0.8      0.2                             1392200200165 
1062.66    0.06          2.4      0.5                             1392200200166 
1069.4     0.2           1.5      0.4                             1392200200167 
1080.5     0.4           0.7      0.3       1.                    1392200200168 
1091.331   0.017        30.       2.                              1392200200169 
1096.0     0.3           2.4      0.4                             1392200200170 
1101.6     0.2           3.4      0.4                             1392200200171 
1106.6     0.2           4.4      0.8                             1392200200172 
1113.716   0.040         5.0      0.9                             1392200200173 
1137.012   0.032         4.6      0.1                             1392200200174 
1143.53    0.05          2.0      0.4                             1392200200175 
1150.8     0.3           1.5      0.3                             1392200200176 
1158.82    0.13          1.2      0.2                             1392200200177 
1162.1     0.4           1.5      0.4                             1392200200178 
1188.9     0.2           1.0      0.2                             1392200200179 
1199.496   0.036        10.       2.        2.                    1392200200180 
1204.1     0.2           4.4      0.5       2.                    1392200200181 
1210.2     0.4           1.7      0.4                             1392200200182 
1229.65    0.13          2.4      0.5                             1392200200183 
1243.94    0.07          4.5      0.5                             1392200200184 
1248.838   0.031        16.3      1.4                             1392200200185 
1264.6     0.2           3.3      0.6                             1392200200186 
1272.6     0.5           1.7      0.4                             1392200200187 
1296.49    0.06          7.5      1.0                             1392200200188 
1305.586   0.041        10.4      0.7                             1392200200189 
1311.8     0.6           1.0      0.4       1.                    1392200200190 
1314.9     0.5           1.1      0.4       1.                    1392200200191 
1321.741   0.038        13.8      1.1                             1392200200192 
1330.6     0.5           1.6      0.5                             1392200200193 
1334.3     0.3           2.3      0.5                             1392200200194 
1353.0     0.4           1.3      0.5                             1392200200195 
1358.30    0.08         11.7      1.1                             1392200200196 
1360.4     0.3           5.5      0.8                             1392200200197 
1370.7     0.3           2.0      0.5                             1392200200198 
1379.1     0.3           1.8      0.6                             1392200200199 
1397.9     0.4           1.5      0.5                             1392200200200 
1404.6     0.2           4.3      0.5                             1392200200201 
1422.3     0.3           1.2      0.3                             1392200200202 
1428.7     0.3           1.3      0.3                             1392200200203 
1439.38    0.06         11.0      0.9                             1392200200204 
1446.84    0.12          7.5      0.7                             1392200200205 
1450.1     0.4           1.9      0.5                             1392200200206 
1463.5     0.3           3.7      0.6                             1392200200207 
1467.53    0.08          8.4      0.8                             1392200200208 
1473.97    0.08          9.0      1.5                             1392200200209 
1485.81    0.15          3.6      0.8                             1392200200210 
1491.600   0.044        23.       2.                              1392200200211 
1497.85    0.06         12.5      1.1                             1392200200212 
1510.745   0.048        13.3      1.1                             1392200200213 
1515.5     0.3           1.9      0.6                             1392200200214 
1526.7     0.2           2.3      1.4       2.                    1392200200215 
1532.303   0.047        20.       2.                              1392200200216 
1562.850   0.048        13.5      1.3                             1392200200217 
1576.32    0.11          7.5      1.1                             1392200200218 
1582.5     0.2           3.7      0.6                             1392200200219 
1604.3     0.3           3.3      0.6                             1392200200220 
1613.1     0.3           2.3      0.4                             1392200200221 
1620.7     0.3           5.7      1.0                             1392200200222 
1628.5     0.2           5.7      0.5                             1392200200223 
1632.4     0.2           8.8      0.7                             1392200200224 
1635.2     0.2           3.4      0.5                             1392200200225 
1643.4     0.2           7.1      0.6                             1392200200226 
1646.0     0.5           3.3      0.5                             1392200200227 
1656.5     0.3           3.1      0.4                             1392200200228 
1661.9     0.5           1.1      0.4                             1392200200229 
1671.7     0.4           2.0      0.5                             1392200200230 
1674.7     0.5           2.5      0.6                             1392200200231 
1677.5     0.2          15.       2.        2.                    1392200200232 
1686.6     0.3           3.1      0.5                             1392200200233 
1691.7     0.2           3.9      0.7                             1392200200234 
1694.3     0.4           2.6      0.6                             1392200200235 
1713.6     0.2          14.       2.        2.                    1392200200236 
1726.1     0.3           4.5      0.7                             1392200200237 
1731.9     0.3           3.9      0.7                             1392200200238 
1736.9     0.2          14.8      1.2                             1392200200239 
1768.9     0.5           2.9      0.7                             1392200200240 
1771.5     0.3           9.3      1.0                             1392200200241 
1795.0     0.3           2.7      0.7                             1392200200242 
1799.5     0.4           4.4      1.0                             1392200200243 
1802.3     0.2          26.       2.                              1392200200244 
1807.3     0.2           8.3      0.8                             1392200200245 
1818.6     0.2           2.8      0.6                             1392200200246 
1826.0     0.2          14.3      1.2                             1392200200247 
1839.4     0.3           4.0      0.5                             1392200200248 
1848.7     0.4           1.8      0.4                             1392200200249 
1853.6     0.3           2.5      0.4                             1392200200250 
1863.7     0.5           1.6      0.6                             1392200200251 
1870.0     0.7           1.4      0.6                             1392200200252 
1873.9     0.3           7.5      0.8                             1392200200253 
1888.4     0.2          15.2      1.2                             1392200200254 
1900.2     0.4           1.7      0.6       1.                    1392200200255 
1910.8     0.5           1.9      0.5       1.                    1392200200256 
1969.1     0.2          16.       2.                              1392200200257 
1978.6     0.2          26.       2.                              1392200200258 
1999.3     0.4           3.0      0.9                             1392200200259 
2066.5     0.3           9.3      1.3                             1392200200260 
2068.0     0.3           5.3      1.2                             1392200200261 
2104.4     0.3           5.5      0.9                             1392200200262 
2114.4     0.3           3.9      0.5                             1392200200263 
2132.9     0.7           2.0      0.7                             1392200200264 
2135.7     0.6           1.8      0.7                             1392200200265 
2149.1     0.7           1.3      0.5                             1392200200266 
2173.5     0.3           5.6      0.6                             1392200200267 
2183.6     0.3           8.4      1.1                             1392200200268 
2185.4     0.6           2.8      0.9       1.                    1392200200269 
2245.8     0.3           7.4      0.5                             1392200200270 
2253.4     0.4           2.0      0.4                             1392200200271 
2259.8     0.4           1.9      0.3                             1392200200272 
2275.8     0.5           1.6      0.3                             1392200200273 
2310.9     0.3          21.       2.                              1392200200274 
2321.2     0.3           3.8      0.5                             1392200200275 
2333.9     0.5           3.0      0.4                             1392200200276 
2351.0     0.3           1.8      0.3                             1392200200277 
2374.8     0.3           5.6      0.5       1.                    1392200200278 
2381.4     0.7           1.3      0.3                             1392200200279 
2392.6     0.4          11.8      0.9                             1392200200280 
2467.3     0.7           3.5      1.1       3.                    1392200200281 
2469.7     0.4          12.0      1.4                             1392200200282 
2484.1     0.7           1.6      0.4                             1392200200283 
2488.1     0.6           2.6      0.4                             1392200200284 
2492.7     0.1           1.0      0.4                             1392200200285 
2505.2     0.4           5.0      0.5                             1392200200286 
2510.4     0.7           1.3      0.4                             1392200200287 
ENDDATA            241          0                                 1392200200288 
ENDSUBENT          287          0                                 1392200299999 
SUBENT        13922003   20120809                             13851392200300001 
BIB                 10         28                                 1392200300002 
REACTION   (78-PT-195(N,G)78-PT-196,,SPC,,REL)                    1392200300003 
FACILITY   (REAC,1USABNL) High Flux Beam Reactor                  1392200300004 
            filtered beam facility, Bi single                     1392200300005 
            crystal filter                                        1392200300006 
           (REAC,2FR ILL) High Flux Reactor                       1392200300007 
DETECTOR   (GELI,NAICR) Ge(Li) 40cm3 detector and NaI(Tl)         1392200300008 
           Ge(Li) has a typical resolution of 2.5 keV             1392200300009 
           at 1.33 MeV.                                           1392200300010 
SAMPLE     Both natural and enriched (97.28% 195Pt)               1392200300011 
            with various weights.                                 1392200300012 
ERR-ANALYS (DATA-ERR) No information given                        1392200300013 
CORRECTION Relative intensity normalized to 1000 for              1392200300014 
            355 keV transition. Energy calibration                1392200300015 
            was performed with a calibrated precision             1392200300016 
            pulser and standard radioactive sources.              1392200300017 
            The efficiency calibration of Ge(Li)                  1392200300018 
            detectors was based on the method                     1392200300019 
            described in REL-REF                                  1392200300020 
REL-REF    (R,,W.R.Kane,J,NIM,56,189,1967)                        1392200300021 
STATUS     Data taken from table 1 of the journal                 1392200300022 
           article                                                1392200300023 
FLAG       (1.) Questionable line                                 1392200300024 
           (2.) Intensity corrected by nearby impurity.           1392200300025 
           (3.) Pair of partially resolved lines. The             1392200300026 
            quoted energies and intensities are the               1392200300027 
            best estimates for the components.                    1392200300028 
HISTORY    (20050427A) Data units corrected.                      1392200300029 
           (20120808A) SD: Energy units corrected (MEV -> KEV)    1392200300030 
ENDBIB              28          0                                 1392200300031 
COMMON               1          3                                 1392200300032 
EN                                                                1392200300033 
EV                                                                1392200300034 
11.9                                                              1392200300035 
ENDCOMMON            3          0                                 1392200300036 
DATA                 5        173                                 1392200300037 
E          E-ERR      DATA       DATA-ERR   FLAG                  1392200300038 
KEV        KEV        ARB-UNITS  ARB-UNITS  NO-DIM                1392200300039 
 176.830   0.003         2.7      0.9                             1392200300040 
 192.903   0.010         0.8      0.2                             1392200300041 
 208.733   0.002         1.3      0.4                             1392200300042 
 209.642   0.006         1.3      0.4                             1392200300043 
 226.270   0.003         1.2      0.6                             1392200300044 
 293.522   0.010         2.1      0.4                             1392200300045 
 307.616   0.009         1.7      0.3                             1392200300046 
 326.349   0.004        96.       9.                              1392200300047 
 332.983   0.002       379.      36.                              1392200300048 
 346.541   0.003         2.7      1.0                             1392200300049 
 355.684   0.002      1000.                                       1392200300050 
 378.675   0.014         2.7      0.4                             1392200300051 
 385.161   0.013         0.36     0.13                            1392200300052 
 393.346   0.007        14.       2.                              1392200300053 
 416.443   0.006         3.2      0.5                             1392200300054 
 418.102   0.028         3.2      0.5                             1392200300055 
 418.726   0.027         3.2      0.5                             1392200300056 
 423.004   0.027         2.4      0.5                             1392200300057 
 431.982   0.024         2.5      0.3                             1392200300058 
 440.709   0.009         0.9      0.3                             1392200300059 
 446.613   0.003         9.9      1.0                             1392200300060 
 470.567   0.019         0.6      0.3                             1392200300061 
 484.438   0.011         2.0      0.6                             1392200300062 
 484.707   0.025         2.0      0.6                             1392200300063 
 521.175   0.005        78.      10.                              1392200300064 
 540.333   0.026         3.9      0.3                             1392200300065 
 541.174   0.007         3.9      0.3                             1392200300066 
 566.174   0.008         2.3      0.2                             1392200300067 
 566.552   0.042         2.3      0.2                             1392200300068 
 570.203   0.018         1.9      0.2                             1392200300069 
 587.423   0.017         0.83     0.13                            1392200300070 
 589.434   0.020         0.83     0.13                            1392200300071 
 590.00    0.09          0.83     0.13                            1392200300072 
 604.616   0.007        10.9      0.8                             1392200300073 
 626.636   0.018         1.0      0.4                             1392200300074 
 641.117   0.042         0.51     0.11                            1392200300075 
 645.950   0.030         0.93     0.14                            1392200300076 
 656.5     0.6           0.7      0.4                             1392200300077 
 659.389   0.012         5.0      0.4                             1392200300078 
 662.188   0.016         0.9      0.2                             1392200300079 
 663.950   0.028         1.1      0.2                             1392200300080 
 665.988   0.024         0.9      0.2                             1392200300081 
 666.988   0.032         0.9      0.2                             1392200300082 
 672.900   0.007        23.       2.                              1392200300083 
 715.3     0.4           0.64     0.14                            1392200300084 
 726.0     0.7           2.0      0.3                             1392200300085 
 727.581   0.023         7.6      0.6                             1392200300086 
 752.823   0.014         0.9      0.2                             1392200300087 
 758.358   0.010         8.2      0.7                             1392200300088 
 761.482   0.016         0.8      0.3                             1392200300089 
 770.8     0.4           0.6      0.4                             1392200300090 
 775.1     0.5           0.5      0.2                             1392200300091 
 779.630   0.007        22.       2.                              1392200300092 
 817.112   0.020         3.7      0.3                             1392200300093 
 825.0     0.6           1.1      0.5                             1392200300094 
 833.581   0.050         2.3      0.7                             1392200300095 
 849.74    0.09          0.7      0.3                             1392200300096 
 854.182   0.032         2.4      0.3                             1392200300097 
 864.72    0.08          0.9      0.3                             1392200300098 
 877.769   0.031         3.2      0.4                             1392200300099 
 885.3     0.6           1.6      0.5                             1392200300100 
 915.80    0.06          8.8      0.7                             1392200300101 
 918.81    0.14          1.5      0.6                             1392200300102 
 955.37    0.13          1.1      0.2                             1392200300103 
 976.34    0.05          2.0      0.5                             1392200300104 
 988.54    0.07          2.3      0.3                             1392200300105 
1005.894   0.020        22.       2.                              1392200300106 
1029.0     0.5           1.2      0.5                             1392200300107 
1031.93    0.08          2.5      0.5                             1392200300108 
1042.4     0.6           0.7      0.3                             1392200300109 
1047.044   0.020        35.       4.                              1392200300110 
1048.3     0.7           8.       2.                              1392200300111 
1062.66    0.06          0.7      0.2                             1392200300112 
1069.4     0.2           2.0      0.4                             1392200300113 
1080.5     0.4           0.6      0.3       1.                    1392200300114 
1091.331   0.017        33.       2.                              1392200300115 
1106.6     0.2           2.4      0.9                             1392200300116 
1113.716   0.040         7.1      0.6                             1392200300117 
1137.012   0.032         3.7      0.9                             1392200300118 
1143.53    0.05          2.2      0.5                             1392200300119 
1158.82    0.13          2.6      0.5                             1392200300120 
1188.9     0.2           0.9      0.6                             1392200300121 
1199.496   0.036         4.8      1.4       2.                    1392200300122 
1204.1     0.2           4.       2.        2.                    1392200300123 
1210.2     0.4           1.4      0.3                             1392200300124 
1222.6     0.9           0.7      0.3                             1392200300125 
1227.6     0.14          1.8      1.2                             1392200300126 
1229.65    0.13          3.3      1.2       1.                    1392200300127 
1243.94    0.07          3.6      0.5                             1392200300128 
1246.8     0.6           2.6      0.8                             1392200300129 
1248.838   0.031        22.       9.                              1392200300130 
1264.6     0.2           1.5      0.5                             1392200300131 
1272.6     0.5           1.6      0.4                             1392200300132 
1296.49    0.06         10.       2.                              1392200300133 
1305.586   0.041         2.5      0.4       1.                    1392200300134 
1321.741   0.038        10.2      0.8                             1392200300135 
1328.4     0.3           1.7      0.5                             1392200300136 
1353.0     0.4           1.8      0.7                             1392200300137 
1358.30    0.08         12.0      1.3                             1392200300138 
1360.4     0.3           7.0      1.1                             1392200300139 
1404.6     0.2           4.8      0.5                             1392200300140 
1439.38    0.06         12.3      0.9                             1392200300141 
1446.84    0.12          8.5      0.6                             1392200300142 
1467.53    0.08         37.       3.                              1392200300143 
1473.97    0.08          8.6      0.9                             1392200300144 
1485.81    0.15         19.2      1.4                             1392200300145 
1491.600   0.044        27.       2.                              1392200300146 
1497.85    0.06         15.7      1.2                             1392200300147 
1510.745   0.048         3.4      0.9                             1392200300148 
1515.5     0.3           1.9      0.6                             1392200300149 
1526.7     0.2           5.1      0.8       2.                    1392200300150 
1532.303   0.047        10.8      0.9                             1392200300151 
1562.850   0.048        28.       3.                              1392200300152 
1573.5     0.3           8.       2.                              1392200300153 
1576.32    0.11          7.       2.                              1392200300154 
1582.5     0.2           3.4      0.5                             1392200300155 
1604.3     0.3           6.4      1.0                             1392200300156 
1632.4     0.2           7.       2.                              1392200300157 
1635.2     0.2          13.9      1.2                             1392200300158 
1643.4     0.2           3.0      1.4                             1392200300159 
1646.0     0.5           6.6      1.4                             1392200300160 
1661.9     0.5           2.2      0.5                             1392200300161 
1671.7     0.4           0.9      0.3                             1392200300162 
1677.5     0.2          13.       2.        2.                    1392200300163 
1686.6     0.3           3.5      0.9                             1392200300164 
1691.7     0.2           6.1      0.8                             1392200300165 
1713.6     0.2          24.       2.        2.                    1392200300166 
1731.9     0.3           6.6      1.0                             1392200300167 
1736.9     0.2          13.0      1.1                             1392200300168 
1771.5     0.3           6.8      0.8                             1392200300169 
1791.3     0.9           1.8      0.4                             1392200300170 
1795.0     0.3           2.9      0.4                             1392200300171 
1802.3     0.2          37.       3.                              1392200300172 
1807.3     0.2          10.6      1.3                             1392200300173 
1818.6     0.2          22.       2.                              1392200300174 
1826.0     0.2          13.       2.                              1392200300175 
1829.2     0.2           1.5      0.4                             1392200300176 
1839.4     0.3           0.8      0.4                             1392200300177 
1870.0     0.7           1.4      0.4                             1392200300178 
1873.9     0.3           3.3      0.6                             1392200300179 
1888.4     0.2           8.       2.                              1392200300180 
1907.0     0.6           1.7      0.4                             1392200300181 
1929.8     0.3           2.0      0.3                             1392200300182 
1953.1     0.6           1.3      0.5                             1392200300183 
1958.0     0.6           1.7      0.5                             1392200300184 
1962.0     0.6           1.3      0.2                             1392200300185 
1969.1     0.2          14.       2.                              1392200300186 
1971.8     0.3           4.0      0.5                             1392200300187 
1976.6     0.8           3.7      0.5                             1392200300188 
1978.6     0.2           5.0      0.6                             1392200300189 
2017.1     0.6           1.0      0.3                             1392200300190 
2045.3     0.5           3.4      0.8                             1392200300191 
2050.1     0.6           1.6      0.7                             1392200300192 
2068.0     0.3          16.7      1.3                             1392200300193 
2104.4     0.3           3.4      0.5                             1392200300194 
2114.4     0.3           4.1      0.9                             1392200300195 
2135.7     0.6           6.5      1.0                             1392200300196 
2173.5     0.3           3.3      0.8                             1392200300197 
2183.6     0.3           9.5      1.0                             1392200300198 
2232.5     1.4           3.3      0.9       1.                    1392200300199 
2245.8     0.3          10.       2.                              1392200300200 
2304.6     0.3           5.2      1.2                             1392200300201 
2310.9     0.3          10.       2.                              1392200300202 
2313.8     0.7           2.8      1.5                             1392200300203 
2321.2     0.3           9.0      1.4                             1392200300204 
2341.4     0.5           2.9      0.6                             1392200300205 
2351.0     0.3           7.       2.                              1392200300206 
2374.8     0.3           8.9      9.                              1392200300207 
2381.4     0.7           2.3      1.1       1.                    1392200300208 
2392.6     0.4           3.1      0.9                             1392200300209 
2424.7     1.1           2.1      0.8                             1392200300210 
2467.3     0.7          27.       4.        3.                    1392200300211 
2469.7     0.4          27.       4.        3.                    1392200300212 
ENDDATA            175          0                                 1392200300213 
ENDSUBENT          212          0                                 1392200399999 
SUBENT        13922004   20120809                             13851392200400001 
BIB                 10         24                                 1392200400002 
REACTION   (78-PT-195(N,G)78-PT-196,,SPC,,SPA/REL)                1392200400003 
INC-SPECT  Reactor Spectrum                                       1392200400004 
FACILITY   (REAC,1USABNL) High Flux Beam Reactor                  1392200400005 
            monochromator facility                                1392200400006 
DETECTOR   (GELI) Ge(Li) 40cm3 detector. Typical                  1392200400007 
            Ge(Li) detector resolution is                         1392200400008 
            9 keV at 8 MeV                                        1392200400009 
SAMPLE     Natural target of 3.5 g and enriched 195Pt             1392200400010 
            (97.28 %) target of 10 g in aluminum frame.           1392200400011 
ERR-ANALYS (DATA-ERR) No information given                        1392200400012 
METHOD     Relative intensity normalized to 1000 for              1392200400013 
           355 keV transition.                                    1392200400014 
STATUS     (TABLE) Data taken from table 3 of the NP/A,323,349    1392200400015 
FLAG       (1.) Questionable line                                 1392200400016 
           (2.) Broad peak, possible unresolved multiplet.        1392200400017 
            The centroid energy and total intensity are           1392200400018 
            quoted.                                               1392200400019 
           (3.) Intensity corrected by nearby impurity.           1392200400020 
           (4.) Pair of partially resolved lines. The             1392200400021 
            quoted energies and intensities are the               1392200400022 
            best estimates for the components.                    1392200400023 
HISTORY    (20050427A) Data units corrected.                      1392200400024 
           (20120808A) SD: Energy units corrected (MEV -> KEV)    1392200400025 
           SF8=REL -> SPA/REL in REACTION code.                   1392200400026 
ENDBIB              24          0                                 1392200400027 
COMMON               1          3                                 1392200400028 
EN-DUMMY                                                          1392200400029 
EV                                                                1392200400030 
0.0253                                                            1392200400031 
ENDCOMMON            3          0                                 1392200400032 
DATA                 5         45                                 1392200400033 
E          E-ERR      DATA       DATA-ERR   FLAG                  1392200400034 
KEV        KEV        ARB-UNITS  ARB-UNITS  NO-DIM                1392200400035 
 355.684   0.002      1000.                                       1392200400036 
5255.3     0.7         104.       8.                              1392200400037 
5261.2     0.8          16.       2.                              1392200400038 
5307.6     0.7          26.       2.                              1392200400039 
5367.7     1.3           2.0      0.8       1.                    1392200400040 
5393.7     0.7          23.       2.        2.                    1392200400041 
5417.9     0.8           2.8      8.                              1392200400042 
5435.4     1.4           5.       2.                              1392200400043 
5452.0     0.6          16.0      1.7                             1392200400044 
5459.6     1.4           2.6      1.0                             1392200400045 
5500.7     0.7           5.5      0.9       1.                    1392200400046 
5539.0     0.8           3.0      1.0                             1392200400047 
5546.9     0.9           5.6      1.2                             1392200400048 
5553.7     1.5           2.6      1.0                             1392200400049 
5577.3     0.8           5.3      1.0                             1392200400050 
5612.5     0.5          25.       2.                              1392200400051 
5677.0     1.0           3.9      1.1       2.                    1392200400052 
5717.3     1.2           4.1      1.3                             1392200400053 
5722.9     0.7          13.6      1.7                             1392200400054 
5739.3     0.6           8.6      1.1                             1392200400055 
5747.5     1.0           4.6      1.0                             1392200400056 
5760.1     0.6          14.5      1.6                             1392200400057 
5795.0     0.6           6.4      0.9                             1392200400058 
5829.8     0.6           4.4      0.7                             1392200400059 
5852.2     1.0           1.8      0.4                             1392200400060 
5874.9     0.6           8.3      0.9                             1392200400061 
5911.4     0.6           8.4      0.7       2.                    1392200400062 
5936.8     1.1           1.7      0.7                             1392200400063 
5953.4     0.5          15.7      1.3                             1392200400064 
5990.9     0.8           3.6      0.8                             1392200400065 
6003.6     0.6          13.3      0.1                             1392200400066 
6034.0     0.7          24.       3.        3.                    1392200400067 
6071.2     1.3           3.0      1.4       4.                    1392200400068 
6075.6     0.9           5.7      1.4       4.                    1392200400069 
6095.9     1.1           2.2      0.7       4.                    1392200400070 
6101.5     1.5           1.4      0.7       4.                    1392200400071 
6120.1     0.9           2.4      0.5                             1392200400072 
6243.8     1.0           1.1      0.3                             1392200400073 
6318.7     0.8           1.5      0.3                             1392200400074 
6518.8     0.9           1.2      0.3                             1392200400075 
6560.5     0.6           2.9      0.3                             1392200400076 
6787.0     1.1           1.8      0.7                             1392200400077 
7234.3     0.6          11.0      1.2                             1392200400078 
7566.6     0.6           3.8      0.5                             1392200400079 
7922.2     0.6          10.8      0.8                             1392200400080 
ENDDATA             47          0                                 1392200400081 
ENDSUBENT           80          0                                 1392200499999 
SUBENT        13922005   20120809                             13851392200500001 
BIB                 10         16                                 1392200500002 
REACTION   (78-PT-195(N,G)78-PT-196,,SPC,,REL)                    1392200500003 
FACILITY   (REAC,1USABNL) High Flux Beam Reactor                  1392200500004 
INC-SPECT  Monochromator facility                                 1392200500005 
DETECTOR   (GELI) Ge(Li) 40cm3 detector. Typical                  1392200500006 
            Ge(Li) detector resolution is                         1392200500007 
            9 keV at 8 MeV                                        1392200500008 
SAMPLE     Natural target of 3.5 g and enriched 195Pt             1392200500009 
            (97.28 %) target of 10 g in aluminum frame.           1392200500010 
ERR-ANALYS (DATA-ERR) No information given                        1392200500011 
METHOD     Relative intensity normalized to 1000 for              1392200500012 
           355 keV transition.                                    1392200500013 
STATUS     (TABLE) Data taken from table 3 of the NP/A,323,349    1392200500014 
FLAG       (1.) Questionable line                                 1392200500015 
HISTORY    (20050427A) Data units corrected.                      1392200500016 
           (20120808A) SD: EN from COMMON section was deleted.    1392200500017 
                           Energy units corrected (MEV -> KEV)    1392200500018 
ENDBIB              16          0                                 1392200500019 
NOCOMMON             0          0                                 1392200500020 
DATA                 6         45                                 1392200500021 
EN         E          E-ERR      DATA       DATA-ERR   FLAG       1392200500022 
EV         KEV        KEV        ARB-UNITS  ARB-UNITS  NO-DIM     1392200500023 
11.9        355.684   0.002      1000.                            1392200500024 
11.9       5392.      2.            2.4       0.7                 1392200500025 
11.9       5451.9     1.5           6.9       1.4                 1392200500026 
11.9       5521.3     1.5           4.7       1.1                 1392200500027 
11.9       5597.7     1.5           4.8       1.1                 1392200500028 
11.9       5659.1     1.5           8.        2.                  1392200500029 
11.9       5720.      2.            3.6       1.1                 1392200500030 
11.9       5747.3     1.5          22.        4.                  1392200500031 
11.9       5760.      2.           13.        3.                  1392200500032 
11.9       5795.      3.            1.1       0.6      1.         1392200500033 
11.9       5828.5     1.7           3.1       0.7                 1392200500034 
11.9       5875.      1.5           6.9       1.4                 1392200500035 
11.9       5910.9     1.5           3.5       0.9                 1392200500036 
11.9       5952.4     1.5           2.0       0.9      1.         1392200500037 
11.9       6003.8     1.5          17.        4.                  1392200500038 
11.9       6067.9     1.6           5.4       1.3                 1392200500039 
11.9       6074.3     1.5           4.2       1.1                 1392200500040 
11.9       6098.2     1.5          19.        4.                  1392200500041 
11.9       6317.2     1.1          10.        2.                  1392200500042 
11.9       6519.4     1.1          15.        4.                  1392200500043 
11.9       6560.6     1.4           2.4       0.6                 1392200500044 
11.9       7566.0     1.3           2.0       0.6                 1392200500045 
11.9       7922.4     1.1          59.       11.                  1392200500046 
19.6       5262.      2.           20.        3.                  1392200500047 
19.6       5392.9     1.5          24.        3.                  1392200500048 
19.6       5428.      2.           17.        2.                  1392200500049 
19.6       5477.7     1.5           7.7       1.3                 1392200500050 
19.6       5520.2     1.5          13.        2.                  1392200500051 
19.6       5675.8     1.5          14.        2.                  1392200500052 
19.6       5692.5     1.5           8.3       1.3                 1392200500053 
19.6       5717.3     1.5          16.        2.                  1392200500054 
19.6       5758.9     1.5          51.        5.                  1392200500055 
19.6       5829.0     1.5          14.        3.                  1392200500056 
19.6       5910.7     1.5          10.5       1.3                 1392200500057 
19.6       5922.2     1.5           7.4       1.2                 1392200500058 
19.6       5952.9     1.5          49.        4.                  1392200500059 
19.6       6033.7     1.5           9.8       1.0                 1392200500060 
19.6       6119.2     1.5          42.        4.                  1392200500061 
19.6       6126.0     1.5          15.        3.                  1392200500062 
19.6       6244.4     1.5          83.        9.                  1392200500063 
19.6       6518.9     1.5         100.                            1392200500064 
19.6       6786.4     1.5           5.8       0.7                 1392200500065 
19.6       7233.0     1.5          12.0       1.0                 1392200500066 
19.6       7566.3     1.5          10.4       0.9                 1392200500067 
19.6       7922.2     1.5          27.        2.                  1392200500068 
ENDDATA             47          0                                 1392200500069 
ENDSUBENT           68          0                                 1392200599999 
SUBENT        13922006   20120809                             13851392200600001 
BIB                  9         22                                 1392200600002 
REACTION   (78-PT-195(N,G)78-PT-196,,SPC,,SPA/REL)                1392200600003 
INC-SPECT  Reactor Spectrum. The Sc filter was used which yields  1392200600004 
           a 2 keV neutron beam with an energy spread of          1392200600005 
           850 eV FWHM.                                           1392200600006 
FACILITY   (REAC,1USABNL) High Flux Beam Reactor                  1392200600007 
            Sc filtered beam facility                             1392200600008 
DETECTOR   (GELI,NAICR) Ge(Li) 40cm3 detector. Typical            1392200600009 
            Ge(Li) detector resolution is                         1392200600010 
            9 keV at 8 MeV                                        1392200600011 
SAMPLE     Natural target of 3.5 g and enriched 195Pt             1392200600012 
            (97.28 %) target of 10 g in aluminum frame.           1392200600013 
ERR-ANALYS (DATA-ERR) No information given                        1392200600014 
METHOD     Thermal beam is provided by a 28 cm long               1392200600015 
            Bi single crystal filter. Primary                     1392200600016 
            gamma rays are detected with a three-                 1392200600017 
            crystal pair spectrometer (a central Ge(Li)           1392200600018 
            surrounded by two NaI(Tl))                            1392200600019 
            Relative intensity normalized to 100 for              1392200600020 
            7923 keV transition.                                  1392200600021 
STATUS     (TABLE) Data taken from table 4 of the NP/A,323,349    1392200600022 
HISTORY    (20120808A) SD: Energy units corrected (MEV -> KEV)    1392200600023 
           SF8=REL -> SPA/REL in REACTION code.                   1392200600024 
ENDBIB              22          0                                 1392200600025 
COMMON               2          3                                 1392200600026 
EN         EN-RSL-FW                                              1392200600027 
KEV        EV                                                     1392200600028 
2.         850.                                                   1392200600029 
ENDCOMMON            3          0                                 1392200600030 
DATA                 4         57                                 1392200600031 
E          E-ERR      DATA       DATA-ERR                         1392200600032 
KEV        KEV        ARB-UNITS  ARB-UNITS                        1392200600033 
7923.2     0.5        100.                                        1392200600034 
7567.8     0.5         83.       7.                               1392200600035 
7234.9     0.5         83.       7.                               1392200600036 
6788.1     0.6         38.       4.                               1392200600037 
6562.0     0.6         46.       4.                               1392200600038 
6520.8     0.6         34.       4.                               1392200600039 
6319.2     0.6         33.       4.                               1392200600040 
6246.3     0.6         27.       3.                               1392200600041 
6128.0     0.8         16.       3.                               1392200600042 
6120.9     0.7         29.       3.                               1392200600043 
6100.3     0.6         29.       3.                               1392200600044 
6076.2     0.7         29.       4.                               1392200600045 
6070.2     0.8         18.       3.                               1392200600046 
6035.8     0.6         47.       5.                               1392200600047 
6005.3     0.7         22.       3.                               1392200600048 
5991.2     0.6         33.       4.                               1392200600049 
5954.8     0.6         45.       4.                               1392200600050 
5938.5     0.6         35.       4.                               1392200600051 
5923.1     0.8         13.       3.                               1392200600052 
5912.5     0.8         14.       3.                               1392200600053 
5876.6     0.6         44.       4.                               1392200600054 
5854.2     0.6         34.       4.                               1392200600055 
5831.2     0.6         52.       5.                               1392200600056 
5796.3     0.7         28.       3.                               1392200600057 
5762.3     0.6         37.       4.                               1392200600058 
5749.5     0.7         16.       3.                               1392200600059 
5740.5     0.6         32.       4.                               1392200600060 
5724.2     0.9         17.       4.                               1392200600061 
5719.3     0.9         18.       4.                               1392200600062 
5694.0     0.6         31.       4.                               1392200600063 
5678.1     0.6         34.       4.                               1392200600064 
5661.0     0.7         17.       3.                               1392200600065 
5653.0     0.7         24.       3.                               1392200600066 
5614.0     0.7         26.       3.                               1392200600067 
5599.5     0.7         22.       3.                               1392200600068 
5578.7     0.7         22.       3.                               1392200600069 
5556.9     0.7         27.       3.                               1392200600070 
5549.4     0.7         25.       3.                               1392200600071 
5540.8     0.7         21.       3.                               1392200600072 
5523.1     0.7         17.       2.                               1392200600073 
5502.1     0.7         26.       3.                               1392200600074 
5480.2     0.7         17.       3.                               1392200600075 
5464.2     0.7         17.       3.                               1392200600076 
5453.8     0.7         24.       3.                               1392200600077 
5435.8     0.8         17.       3.                               1392200600078 
5430.0     0.8         18.       3.                               1392200600079 
5419.4     0.8         11.       3.                               1392200600080 
5395.3     0.6         33.       4.                               1392200600081 
5369.9     0.8         10.       2.                               1392200600082 
5352.4     0.7         18.       3.                               1392200600083 
5336.3     0.7         18.       2.                               1392200600084 
5324.1     0.9          9.       2.                               1392200600085 
5316.4     0.8         14.       2.                               1392200600086 
5308.8     0.7         15.       2.                               1392200600087 
5293.3     0.8         10.       2.                               1392200600088 
5264.9     0.7         22.       3.                               1392200600089 
5257.3     0.7         19.       3.                               1392200600090 
ENDDATA             59          0                                 1392200600091 
ENDSUBENT           90          0                                 1392200699999 
ENDENTRY             6          0                                 1392299999999 
