ENTRY            13934   20041203                             00001393400000001 
SUBENT        13934001   20041203                             00001393400100001 
BIB                  5          6                                 1393400100002 
INSTITUTE  (1USABNL)                                              1393400100003 
REFERENCE  (J,PR/C,9,366,197401)                                  1393400100004 
AUTHOR     (D.Breitig,R.F.Casten,G.W.Cole)                        1393400100005 
TITLE      Low-spin States in 200Hg studied with the              1393400100006 
            (n,gamma) reaction.                                   1393400100007 
HISTORY    (20041119C) DR                                         1393400100008 
ENDBIB               6          0                                 1393400100009 
NOCOMMON             0          0                                 1393400100010 
ENDSUBENT            9          0                                 1393400199999 
SUBENT        13934002   20041203                             00001393400200001 
BIB                 11         30                                 1393400200002 
REACTION   (80-HG-199(N,G)80-HG-200,,SPC,,MXW/REL)                1393400200003 
FACILITY  1(REAC,1USABNL) High Flux Beam Reactor                  1393400200004 
          2(SPECC,2DENRIS) Riso bent-crystal spectrometer.        1393400200005 
INC-SPECT 2Thermal neutron spectrum                               1393400200006 
DETECTOR  1 Riso bent crystal spectrometer with                   1393400200007 
            resolution of 400 eV at 1 MeV.                        1393400200008 
          2(GELI) GeLi. detectors of 40 cm3. Typical energy       1393400200009 
            resolution is 2.5 keV FWHM for the 60Co lines.        1393400200010 
SAMPLE    1At Riso: 37 mg of HgS with 97 % of 199Hg               1393400200011 
          2At BNL: 70 mg HgO with 97 % of 199Hg.                  1393400200012 
CORRECTION1 For the bent-crystal spectrometer, the intensities    1393400200013 
            were corrected for the reflectivity of the crystal,   1393400200014 
            absorption between source and detector, self-         1393400200015 
            absorption in the gamma-ray source, and detector      1393400200016 
            efficiency.                                           1393400200017 
          2 For the GeLi, peak intensities were corrected for     1393400200018 
            detector efficiency and absorption and normalized     1393400200019 
            to the relative intensities of the bent-crystal       1393400200020 
            spectrometer measurements.                            1393400200021 
MONITOR   2 For the GeLi, energy calibration was made by          1393400200022 
            comparison with bent-crystal spectrometer energies    1393400200023 
            for some of the strongest lines between 1 and 2 MeV.  1393400200024 
ERR-ANALYS (DATA-ERR) If not given, intensity errors are          1393400200025 
            > 40%.                                                1393400200026 
REL-REF    (R,,W.Mampe,J,ZN/A,26,405,1971)                        1393400200027 
FLAG       (1.) Questionable line.                                1393400200028 
           (2.) Unresolved multiplet                              1393400200029 
           (3.) Possibly impurity line                            1393400200030 
           (4.) Energy Taken from Mampe, see Related reference    1393400200031 
STATUS     Data taken from table I of the journal article         1393400200032 
ENDBIB              30          0                                 1393400200033 
COMMON               1          3                                 1393400200034 
EN-DUMMY                                                          1393400200035 
EV                                                                1393400200036 
0.0253                                                            1393400200037 
ENDCOMMON            3          0                                 1393400200038 
DATA                 6        523                                 1393400200039 
E          E-ERR      DATA       DATA-MAX   DATA-ERR   FLAG       1393400200040 
KEV        KEV        ARB-UNITS  ARB-UNITS  PER-CENT   NO-DIM     1393400200041 
  76.854   0.004         2.1                30.                   1393400200042 
  83.639   0.009         3.9                           1.         1393400200043 
  97.548   0.009         2.5                           1.         1393400200044 
  97.761   0.010         2.3                                      1393400200045 
  99.779   0.010         2.1                           1.         1393400200046 
 113.24    0.02          1.0                           1.         1393400200047 
 115.714   0.009         1.4                30.                   1393400200048 
 130.26    0.02          0.4                           1.         1393400200049 
 137.50    0.02          0.4                                      1393400200050 
 138.471   0.016         0.4                                      1393400200051 
 140.898   0.012         0.5                30.                   1393400200052 
 144.639   0.010         1.1                15.                   1393400200053 
 148.026   0.004         0.95               10.                   1393400200054 
 148.500   0.006         0.17               20.                   1393400200055 
 151.932   0.005         0.28               15.        3.         1393400200056 
 156.634   0.012         0.05                                     1393400200057 
 159.299   0.006         0.32               20.                   1393400200058 
 160.49    0.03          0.11                          1.         1393400200059 
 160.659   0.011         0.07                                     1393400200060 
 162.434   0.013         0.05                          1.         1393400200061 
 164.544   0.006         0.39               10.                   1393400200062 
 164.658   0.015         0.04                          1.         1393400200063 
 167.483   0.007         0.11               20.        3.         1393400200064 
 182.53    0.03          0.07                                     1393400200065 
 182.70    0.03          0.06                          1.         1393400200066 
 185.911   0.010         0.06               30.                   1393400200067 
 185.98    0.02          0.04                          1.         1393400200068 
 186.771   0.003         0.05               35.                   1393400200069 
 189.96    0.02          0.03                          1.         1393400200070 
 190.24    0.02          0.03                          1.         1393400200071 
 197.45    0.02          0.03                                     1393400200072 
 201.91    0.02          0.04               35.                   1393400200073 
 202.966   0.013         0.06               30.                   1393400200074 
 203.135   0.007         0.56               10.                   1393400200075 
 203.832   0.012         0.06               30.                   1393400200076 
 204.417   0.008         0.23               10.                   1393400200077 
 206.083   0.009         0.09               15.                   1393400200078 
 214.44    0.02          0.04                                     1393400200079 
 215.598   0.009         0.13               15.                   1393400200080 
 215.743   0.013         0.06               25.                   1393400200081 
 223.494   0.007         0.11               15.                   1393400200082 
 224.750   0.006         0.19               10.                   1393400200083 
 225.885   0.006         0.65                6.                   1393400200084 
 227.65    0.02          0.04               35.                   1393400200085 
 235.516   0.010         0.05               20.                   1393400200086 
 241.356   0.012         0.05               35.                   1393400200087 
 241.425   0.010         0.07               25.                   1393400200088 
 243.411   0.007         0.25                8.                   1393400200089 
 245.223   0.008         0.16               15.                   1393400200090 
 247.35    0.02          0.03               30.                   1393400200091 
 249.265   0.014         0.03               35.                   1393400200092 
 250.778   0.013         0.04               25.                   1393400200093 
 251.969   0.007         0.72                6.                   1393400200094 
 252.356   0.007         0.41                7.                   1393400200095 
 253.991   0.015         0.04               30.                   1393400200096 
 255.75    0.03          0.05               25.                   1393400200097 
 268.18    0.03          0.03                          1.         1393400200098 
 268.49    0.03          0.03                          1.         1393400200099 
 270.530   0.012         0.07               20.                   1393400200100 
 271.68    0.02          0.06               15.                   1393400200101 
 272.109   0.008         0.33                7.                   1393400200102 
 275.497   0.012         0.06               15.                   1393400200103 
 278.17    0.03          0.07               25.                   1393400200104 
 278.274   0.013         0.09               25.                   1393400200105 
 278.88    0.03          0.03               35.                   1393400200106 
 281.08    0.02          0.05               20.                   1393400200107 
 283.88    0.03          0.04               30.                   1393400200108 
 286.518   0.013         0.07               15.                   1393400200109 
 287.182   0.010         0.11               10.                   1393400200110 
 287.620   0.013         0.06               20.                   1393400200111 
 289.425   0.009         1.30                6.                   1393400200112 
 298.34    0.04          0.03               35.                   1393400200113 
 298.75    0.06          0.04                          1.         1393400200114 
 299.53    0.06          0.05                          1.         1393400200115 
 299.887   0.012         0.09               15.                   1393400200116 
 301.963   0.013         0.07               15.                   1393400200117 
 306.618   0.011         0.18               10.                   1393400200118 
 306.863   0.011         0.12               12.                   1393400200119 
 308.47    0.04          0.03               40.                   1393400200120 
 308.801   0.011         0.14               10.                   1393400200121 
 309.209   0.008         0.55                6.                   1393400200122 
 312.613   0.013         0.08               12.                   1393400200123 
 313.23    0.03          0.04               25.                   1393400200124 
 316.176   0.08          1.12                6.                   1393400200125 
 317.74    0.10          0.03                                     1393400200126 
 318.03    0.08          0.04                                     1393400200127 
 319.566   0.015         0.08               15.                   1393400200128 
 321.55    0.03          0.06               20.                   1393400200129 
 322.57    0.05          0.05               25.                   1393400200130 
 325.31    0.04          0.04               30.                   1393400200131 
 329.27    0.04          0.03               35.                   1393400200132 
 330.303   0.016         0.11               15.                   1393400200133 
 330.84    0.03          0.06                                     1393400200134 
 331.34    0.03          0.05               25.                   1393400200135 
 332.67    0.04          0.05               30.                   1393400200136 
 337.51    0.02          0.05               20.                   1393400200137 
 338.75    0.02          0.2                18.                   1393400200138 
 340.03    0.02          0.09               12.                   1393400200139 
 341.375   0.012         0.2                18.                   1393400200140 
 342.185   0.014         0.2                18.                   1393400200141 
 342.42    0.03          0.05               35.                   1393400200142 
 342.939   0.012         0.39               10.                   1393400200143 
 343.38    0.02          0.07               15.                   1393400200144 
 346.406   0.014         0.19               10.                   1393400200145 
 351.27    0.02          0.31               12.                   1393400200146 
 352.353   0.012         0.27               11.                   1393400200147 
 353.07    0.05          0.04               35.                   1393400200148 
 356.44    0.04          0.09               25.                   1393400200149 
 359.48    0.04          0.07               25.                   1393400200150 
 363.72    0.08          0.04               40.                   1393400200151 
 367.942   0.010      1180.                  4.                   1393400200152 
 376.68    0.02          0.20               25.                   1393400200153 
 376.79    0.02          0.23               20.                   1393400200154 
 380.03    0.02          0.10               13.                   1393400200155 
 383.437   0.011         0.32                8.                   1393400200156 
 387.345   0.009         1.59                6.                   1393400200157 
 392.524   0.017         0.12               11.                   1393400200158 
 395.97    0.04          0.06               25.                   1393400200159 
 397.01    0.02          0.16               13.                   1393400200160 
 397.765   0.014         0.29               11.                   1393400200161 
 398.249   0.009         3.70                5.                   1393400200162 
 398.63    0.02          0.22               14.                   1393400200163 
 399.65    0.05          0.04               40.                   1393400200164 
 404.94    0.04          0.06               17.                   1393400200165 
 408.556   0.010         1.34                6.                   1393400200166 
 409.63    0.03          0.09               18.                   1393400200167 
 414.41    0.07          0.04                          1.         1393400200168 
 415.50    0.03          0.09               13.                   1393400200169 
 419.828   0.010         1.81                6.                   1393400200170 
 423.24    0.03          0.17               14.                   1393400200171 
 427.79    0.03          0.14               13.                   1393400200172 
 428.45    0.03          0.13               13.                   1393400200173 
 429.79    0.07          0.06                                     1393400200174 
 430.368   0.010         4.72                6.                   1393400200175 
 437.03    0.05          0.05                          1.         1393400200176 
 437.56    0.13          0.06               40.                   1393400200177 
 439.52    0.04          0.08               25.                   1393400200178 
 445.686   0.014         0.51                8.                   1393400200179 
 448.91    0.02          1.09                8.                   1393400200180 
 452.30    0.014         0.07                          1.         1393400200181 
 453.60    0.16          0.07                                     1393400200182 
 455.13    0.04          0.11               15.                   1393400200183 
 456.10    0.05          0.07               25.                   1393400200184 
 458.80    0.09          0.07               35.                   1393400200185 
 460.76    0.05          0.09               25.                   1393400200186 
 461.16    0.09          0.07               30.                   1393400200187 
 462.94    0.05          0.08               25.                   1393400200188 
 464.214   0.012         1.31                6.                   1393400200189 
 466.72    0.03          0.10               25.                   1393400200190 
 467.86    0.02          1.65                6.                   1393400200191 
 468.73    0.03          0.29               25.                   1393400200192 
 468.93    0.02          0.35               20.                   1393400200193 
 471.19    0.03          0.14               15.                   1393400200194 
 472.12    0.08          0.07               30.                   1393400200195 
 475.08    0.04          0.10               20.                   1393400200196 
 476.815   0.013         1.95                6.                   1393400200197 
 480.24    0.03          0.22               11.                   1393400200198 
 482.32    0.06          0.08               30.                   1393400200199 
 483.34    0.09          0.07                                     1393400200200 
 485.36    0.02          0.98               11.                   1393400200201 
 485.62    0.02          2.42                8.                   1393400200202 
 486.44    0.07          0.08               35.                   1393400200203 
 487.12    0.03          0.52               11.                   1393400200204 
 487.56    0.02          1.81                7.                   1393400200205 
 490.95    0.02          1.16                6.                   1393400200206 
 491.70    0.06          0.10               25.                   1393400200207 
 495.48    0.08          0.09               40.                   1393400200208 
 495.93    0.02          3.05                6.                   1393400200209 
 497.81    0.02          0.86                7.                   1393400200210 
 498.63    0.04          0.18               13.                   1393400200211 
 502.83    0.04          0.22               11.                   1393400200212 
 505.23    0.03          0.14               17.                   1393400200213 
 516.35    0.03          0.27               15.                   1393400200214 
 517.14    0.07          0.15               25.                   1393400200215 
 520.91    0.05          0.21               17.                   1393400200216 
 521.41    0.07          0.13               30.                   1393400200217 
 532.53    0.06          0.11               25.                   1393400200218 
 533.48    0.03          0.47                9.                   1393400200219 
 534.48    0.03          0.17               18.                   1393400200220 
 535.01    0.05          0.14               20.                   1393400200221 
 537.30    0.05          0.20               16.                   1393400200222 
 540.948   0.016         9.79                6.                   1393400200223 
 544.21    0.07          0.10               20.                   1393400200224 
 546.10    0.02          0.71                7.                   1393400200225 
 546.99    0.12          0.07                          1.         1393400200226 
 551.93    0.08          0.17               30.                   1393400200227 
 552.49    0.19          0.08                          1.         1393400200228 
 553.18    0.02          1.25                7.                   1393400200229 
 556.58    0.02          3.38                6.                   1393400200230 
 558.61    0.05          0.15               20.                   1393400200231 
 562.57    0.03          0.53                8.                   1393400200232 
 563.63    0.09          0.11               30.                   1393400200233 
 564.19    0.05          0.17               20.                   1393400200234 
 566.15    0.05          0.26               14.                   1393400200235 
 568.04    0.07          0.13               25.                   1393400200236 
 571.8     0.3           0.09                          1.         1393400200237 
 573.41    0.04          0.27               13.                   1393400200238 
 577.98    0.06          0.20               35.                   1393400200239 
 579.300   0.017        27.8                 6.                   1393400200240 
 583.00    0.10          0.08               35.                   1393400200241 
 585.18    0.08          0.10               40.        2.         1393400200242 
 586.98    0.12          0.09               35.                   1393400200243 
 587.88    0.04          0.27               12.                   1393400200244 
 588.96    0.06          0.17               17.                   1393400200245 
 591.66    0.03          1.22                7.                   1393400200246 
 596.06    0.03          0.43               10.                   1393400200247 
 597.41    0.04          0.31               14.                   1393400200248 
 598.35    0.03          0.66                9.                   1393400200249 
 598.99    0.13          0.14                          1.         1393400200250 
 599.93    0.11          0.09               35.                   1393400200251 
 600.82    0.04          0.37               11.                   1393400200252 
 601.48    0.05          0.27               16.                   1393400200253 
 602.73    0.07          0.18               20.                   1393400200254 
 607.26    0.10          0.08               30.                   1393400200255 
 608.22    0.09          0.19               35.                   1393400200256 
 608.93    0.13          0.21                                     1393400200257 
 609.94    0.13          0.11               40.                   1393400200258 
 612.12    0.03          2.48                8.                   1393400200259 
 613.55    0.05          0.25               20.                   1393400200260 
 615.54    0.04          0.82               20.                   1393400200261 
 615.82    0.10          0.49                                     1393400200262 
 623.24    0.03          0.76                7.                   1393400200263 
 626.52    0.10          0.13               30.                   1393400200264 
 628.80    0.03          1.88                7.                   1393400200265 
 631.50    0.09          0.14               25.                   1393400200266 
 632.85    0.05          0.19               20.                   1393400200267 
 634.66    0.10          0.17               25.                   1393400200268 
 635.86    0.16          0.14                                     1393400200269 
 636.76    0.16          0.09                                     1393400200270 
 638.53    0.11          0.14                                     1393400200271 
 639.11    0.04          0.80                8.                   1393400200272 
 643.29    0.04          0.62               10.                   1393400200273 
 644.93    0.05          0.23               16.                   1393400200274 
 646.17    0.07          0.19               18.                   1393400200275 
 649.24    0.08          0.21               17.        2.         1393400200276 
 651.4     0.3           0.19               30.                   1393400200277 
 652.91    0.08          0.21               17.        2.         1393400200278 
 655.59    0.05          0.32               15.                   1393400200279 
 659.01    0.03          1.44               10.                   1393400200280 
 661.36    0.03         80.5                 7.                   1393400200281 
 674.29    0.07          0.27               30.                   1393400200282 
 676.15    0.03          2.57                8.                   1393400200283 
 677.45    0.07          0.56               14.                   1393400200284 
 681.87    0.08          0.37               25.                   1393400200285 
 685.19    0.12          0.20               30.                   1393400200286 
 687.1     0.3           0.20                          1.         1393400200287 
 688.94    0.03          9.2                 7.                   1393400200288 
 690.28    0.06          0.60               25.                   1393400200289 
 694.14    0.05          0.51               17.                   1393400200290 
 695.72    0.20          0.17                                     1393400200291 
 700.17    0.15          0.27               35.                   1393400200292 
 701.56    0.03          8.2                 8.                   1393400200293 
 703.82    0.05          1.22               14.                   1393400200294 
 706.26    0.15          0.20               30.                   1393400200295 
 709.32    0.12          0.23               25.                   1393400200296 
 710.22    0.11          0.30               25.                   1393400200297 
 710.93    0.12          0.21               40.                   1393400200298 
 711.70    0.05          0.85                9.                   1393400200299 
 713.94    0.10          0.26               18.                   1393400200300 
 718.04    0.10          0.50               25.                   1393400200301 
 718.55    0.13          0.36               30.                   1393400200302 
 720.21    0.05          0.78                9.                   1393400200303 
 721.0     0.8           0.2                           1.         1393400200304 
 722.2     0.5           0.2                                      1393400200305 
 724.78    0.10          0.21               25.                   1393400200306 
 728.45    0.07          0.81               10.                   1393400200307 
 733.4     0.3           0.43               25.                   1393400200308 
 738.5     0.2           0.25                                     1393400200309 
 739.05    0.16          0.41               30.                   1393400200310 
 743.52    0.08          0.53               13.                   1393400200311 
 745.22    0.12          0.26               25.                   1393400200312 
 747.30    0.09          0.38               18.                   1393400200313 
 748.84    0.10          0.48               19.                   1393400200314 
 749.9     0.02          0.18               35.                   1393400200315 
 755.92    0.18          0.18               40.                   1393400200316 
 757.01    0.06          1.23               10.                   1393400200317 
 759.30    0.11          0.34               17.                   1393400200318 
 761.43    0.12          0.59               35.                   1393400200319 
 762.10    0.19          0.33                                     1393400200320 
 778.89    0.14          0.29               25.                   1393400200321 
 780.02    0.18          0.44                          1.         1393400200322 
 780.96    0.11          0.28               25.                   1393400200323 
 783.71    0.04          3.00                8.                   1393400200324 
 784.9     0.3           0.24                                     1393400200325 
 787.10    0.04          3.10                9.                   1393400200326 
 788.77    0.06          1.13               14.                   1393400200327 
 789.73    0.19          0.37               35.                   1393400200328 
 796.41    0.06          1.67                8.                   1393400200329 
 797.4     0.2           0.32               35.                   1393400200330 
 799.90    0.18          0.57               30.                   1393400200331 
 807.20    0.05          2.86                7.                   1393400200332 
 818.33    0.11          0.63               17.                   1393400200333 
 823.95    0.14          0.43               30.                   1393400200334 
 828.27    0.04          4.9                 7.                   1393400200335 
 837.7     0.3           0.3                           2.         1393400200336 
 851.36    0.04          9.1                 7.                   1393400200337 
 854.2     0.2           0.60               35.        2.         1393400200338 
 860.6     0.2           0.49               35.                   1393400200339 
 861.71    0.12          0.95               19.                   1393400200340 
 872.93    0.14          0.69               18.        2.         1393400200341 
 886.20    0.04         50.7                 7.                   1393400200342 
 890.0     0.5           0.4                           1.         1393400200343 
 896.7     0.2           0.2                                      1393400200344 
 898.56    0.07          2.6                 9.                   1393400200345 
 901.69    0.17          0.6                                      1393400200346 
 903.5     0.2           0.4                                      1393400200347 
 904.36    0.12          1.4                30.                   1393400200348 
 905.3     0.4           0.6                                      1393400200349 
 911.5     0.6           0.85               35.                   1393400200350 
 917.9     0.3           0.80               25.                   1393400200351 
 935.45    0.08          2.15               12.                   1393400200352 
 945.4     0.3           0.59               30.                   1393400200353 
 947.34    0.17          0.6                                      1393400200354 
 957.19    0.13          0.86               18.                   1393400200355 
 975.15    0.07          5.4                 9.                   1393400200356 
 980.2     0.5           0.9                                      1393400200357 
 992.35    0.17          1.35               14.                   1393400200358 
 996.5     0.7           0.6                40.                   1393400200359 
1002.5     0.3           1.2                35.                   1393400200360 
1008.7     0.4           1.0                                      1393400200361 
1010.2     0.5           0.8                                      1393400200362 
1013.9     0.3           4.1                15.                   1393400200363 
1022.5     0.4           0.7                           1.         1393400200364 
1027.1     0.3           1.3                30.                   1393400200365 
1034.9     0.10          0.8                                      1393400200366 
1038.      1.            0.8                                      1393400200367 
1042.4     0.3           1.8                25.                   1393400200368 
1054.7     0.4           1.0                40.                   1393400200369 
1059.6     0.2           2.0                25.        2.         1393400200370 
1070.0     0.4           0.4                                      1393400200371 
1074.1     0.4           0.4                                      1393400200372 
1081.3     0.3           0.7                30.                   1393400200373 
1100.3     0.5           0.7                                      1393400200374 
1116.      1.            0.4                           1.         1393400200375 
1121.4     0.2           2.5                25.                   1393400200376 
1137.6     0.6           0.7                                      1393400200377 
1147.20    0.08         23.                 10.                   1393400200378 
1158.3     0.7           1.1                30.                   1393400200379 
1163.5     0.3           2.8                20.                   1393400200380 
1167.0     0.7           0.8                                      1393400200381 
1172.8     0.5           1.0                40.                   1393400200382 
1180.4     0.4           1.0                40.                   1393400200383 
1192.9     0.6           0.8                                      1393400200384 
1202.35    0.07         37.                 10.                   1393400200385 
1205.75    0.07         41.                  9.                   1393400200386 
1225.44    0.08         40.                  8.                   1393400200387 
1247.3     0.3           3.4                20.                   1393400200388 
1254.14    0.10         23.                  9.                   1393400200389 
1262.96    0.8          65.                  8.                   1393400200390 
1266.9     0.6           2.4                                      1393400200391 
1273.43    0.10         33.                  9.                   1393400200392 
1283.9     0.7           1.1                                      1393400200393 
1291.1     0.6           3.3                30.                   1393400200394 
1294.6     0.6           1.7                                      1393400200395 
1318.0     0.6           1.9                30.                   1393400200396 
1322.4     0.3           3.5                25.                   1393400200397 
1337.4     1.5           1.8                           2.         1393400200398 
1341.7     0.5           2.9                25.                   1393400200399 
1347.1     0.5           5.8                40.                   1393400200400 
1350.4     0.2          12.5                10.                   1393400200401 
1363.2     0.2          18.                 12.                   1393400200402 
1366.8     0.7           1.8                                      1393400200403 
1385.0     0.3           6.0                20.                   1393400200404 
1408.0     0.2          32.                 10.                   1393400200405 
1420.5                           1.                    4.         1393400200406 
1422.4     0.3           1.5                30.                   1393400200407 
1426.4     0.6           1.1                                      1393400200408 
1432.2     0.2           4.0                20.        2.         1393400200409 
1442.5     1.0           1.                                       1393400200410 
1447.5     0.7           1.9                30.        2.         1393400200411 
1458.2     1.5           1.2                                      1393400200412 
1462.5     1.5           1.9                30.                   1393400200413 
1467.6     0.3           9.4                15.                   1393400200414 
1479.6     1.5           1.                            1.         1393400200415 
1488.5     0.4          10.                 20.                   1393400200416 
1503.2     0.4           6.5                20.                   1393400200417 
1514.8     0.3           9.                 20.                   1393400200418 
1525.9     0.3           1.8                30.                   1393400200419 
1538.2     0.5           2.0                30.                   1393400200420 
1543.1     0.5           6.                 20.                   1393400200421 
1546.1     0.7           2.5                                      1393400200422 
1550.1     0.6           3.0                30.                   1393400200423 
1553.7     0.7           2.5                                      1393400200424 
1557.7     0.3          10.                 20.                   1393400200425 
1570.45    0.15         93.                 10.                   1393400200426 
1589.8     0.5           0.8                                      1393400200427 
1604.5     0.2          12.                 15.                   1393400200428 
1610.9     0.6           2.4                30.                   1393400200429 
1623.5     0.3           6.7                20.        2.         1393400200430 
1630.7     0.4           5.6                20.                   1393400200431 
1633.6     0.7           2.9                40.                   1393400200432 
1638.3     0.5           3.5                25.        2.         1393400200433 
1647.2     0.3           1.9                30.                   1393400200434 
1658.2     0.3           1.4                30.                   1393400200435 
1667.8                           1.                    4.         1393400200436 
1669.6     1.5           1.                            2.         1393400200437 
1676.3     0.3           3.0                25.                   1393400200438 
1681.1     1.5           1.9                           2.         1393400200439 
1685.5     1.0           2.8                40.                   1393400200440 
1693.13    0.14        165.                 10.                   1393400200441 
1699.1     1.0           1.                                       1393400200442 
1706.6     0.3           7.6                15.                   1393400200443 
1711.7     0.5           4.8                25.                   1393400200444 
1715.2     1.0           1.                            1.         1393400200445 
1718.6     0.4          23.                 15.                   1393400200446 
1722.2     0.6           8.2                25.                   1393400200447 
1733.7     1.0           1.                            1.         1393400200448 
1740.2     1.5           1.                            1.         1393400200449 
1745.9     1.5           1.                            1.         1393400200450 
1754.6     0.7           2.6                40.                   1393400200451 
1759.3     0.3          11.                 10.        2.         1393400200452 
1771.9     0.7           2.9                40.                   1393400200453 
1783.3     1.0           1.5                                      1393400200454 
1796.0     0.7           2.1                                      1393400200455 
1799.2     0.5           3.3                30.                   1393400200456 
1811.2     0.4           3.0                20.                   1393400200457 
1822.3     0.7           2.1                35.                   1393400200458 
1825.9     0.5           3.3                25.                   1393400200459 
1829.8     0.7           1.8                35.                   1393400200460 
1838.1     1.5           1.5                           2.         1393400200461 
1857.4                           1.5                   4.         1393400200462 
1860.4     0.3           4.7                           2.         1393400200463 
1879.3     0.3           1.2                           2.         1393400200464 
1906.2     0.3           5.6                15.                   1393400200465 
1921.1     0.3           4.4                15.                   1393400200466 
1928.2     0.3           1.9                30.                   1393400200467 
1957.6     0.7           1.3                                      1393400200468 
1963.5     0.4           2.6                20.                   1393400200469 
1970.9     0.7           1.3                                      1393400200470 
1975.8     0.3           3.9                20.                   1393400200471 
1984.5     0.7           1.6                35.        2.         1393400200472 
2002.1     0.2          77.                 10.                   1393400200473 
2020.6     0.7           3.4                20.                   1393400200474 
2032.6     0.4           2.0                30.                   1393400200475 
2044.2     0.5           2.0                30.                   1393400200476 
2063.7     0.6           1.4                                      1393400200477 
2082.9     0.7           1.7                                      1393400200478 
2093.6     0.4           4.2                20.                   1393400200479 
2107.8     0.3           4.5                20.                   1393400200480 
2118.4                           1.5                   4.         1393400200481 
2123.9     0.7           4.2                20.                   1393400200482 
2139.7     0.3           5.0                20.        2.         1393400200483 
2161.4     0.7           3.5                35.                   1393400200484 
2180.8     0.5           5.0                20.                   1393400200485 
2188.7     0.6           4.3                20.                   1393400200486 
2194.4     0.5           2.2                                      1393400200487 
2204.6     1.0           1.5                35.                   1393400200488 
2240.6     0.7           3.0                30.                   1393400200489 
2251.4     1.0           4.8                35.                   1393400200490 
2259.5     0.5           5.6                20.                   1393400200491 
2271.5     0.4          19.                 15.                   1393400200492 
2283.0     0.4           6.1                20.                   1393400200493 
2289.6     0.7           1.5                                      1393400200494 
2296.3     0.3           9.5                10.                   1393400200495 
2304.7     0.7           1.1                35.                   1393400200496 
2323.5     0.4           3.5                25.        2.         1393400200497 
2346.5     0.6           2.3                25.                   1393400200498 
2365.2     0.7           1.6                30.                   1393400200499 
2370.0     0.3           3.3                20.                   1393400200500 
2401.9     0.4           2.4                20.                   1393400200501 
2423.7     0.7           3.2                30.        2.         1393400200502 
2442.6     0.3           6.2                15.        2.         1393400200503 
2449.8     0.5           1.6                                      1393400200504 
2462.6     1.5           1.9                40.        2.         1393400200505 
2468.0     1.5           1.6                                      1393400200506 
2475.8     1.5           2.                 35.                   1393400200507 
2480.2     1.5           2.                 35.                   1393400200508 
2485.3     1.5           2.                 35.                   1393400200509 
2502.6     1.5           1.7                           2.         1393400200510 
2513.1     0.7           2.                 30.                   1393400200511 
2524.3     0.7           2.                 35.                   1393400200512 
2528.7     0.4           4.6                15.                   1393400200513 
2538.0     0.5           2.5                25.                   1393400200514 
2544.5     0.7           2.5                30.        2.         1393400200515 
2559.0     1.0           1.3                                      1393400200516 
2564.8     0.7           2.9                25.                   1393400200517 
2569.1     0.5           4.2                20.                   1393400200518 
2578.4     0.3           3.4                20.                   1393400200519 
2590.5     0.3           6.1                10.                   1393400200520 
2606.7     1.0           1.7                35.                   1393400200521 
2611.0     0.7           3.0                20.                   1393400200522 
2620.9     0.4           3.5                25.                   1393400200523 
2625.5     0.7           2.6                30.                   1393400200524 
2639.9     0.2          33.                 10.                   1393400200525 
2648.9     0.5           3.0                20.                   1393400200526 
2695.0     1.5           1.5                                      1393400200527 
2699.3     1.5           1.5                                      1393400200528 
2704.6     0.3           1.8                                      1393400200529 
2727.2     0.3           4.                 25.                   1393400200530 
2735.8     0.5           2.7                20.                   1393400200531 
2742.7     0.7           1.4                           1.         1393400200532 
2756.2     1.5           3.2                                      1393400200533 
2764.0     1.5           1.8                                      1393400200534 
2794.5     0.4           2.4                30.        2.         1393400200535 
2806.5     0.4           2.4                30.                   1393400200536 
2818.6     0.3          12.                 10.                   1393400200537 
2827.4     1.0           2.8                30.        2.         1393400200538 
2831.8     1.0           2.8                30.        2.         1393400200539 
2847.3     0.6           4.2                20.                   1393400200540 
2853.8     1.0           1.4                                      1393400200541 
2862.4     1.5           0.5                           1.         1393400200542 
2872.7     1.0           1.4                                      1393400200543 
2880.7     1.0           2.8                35.                   1393400200544 
2883.4     0.5           3.3                30.                   1393400200545 
2901.3     0.3          14.                 10.                   1393400200546 
2921.1     0.3          16.                 10.                   1393400200547 
2928.6     1.0           2.9                30.                   1393400200548 
2937.2     1.0           1.5                                      1393400200549 
2953.8     1.0           2.0                30.                   1393400200550 
2960.2     0.3           9.5                15.                   1393400200551 
2978.5     0.6           3.0                20.                   1393400200552 
2985.8     0.3           3.5                20.                   1393400200553 
2993.8     0.5           2.0                25.                   1393400200554 
3033.6     0.4          10.4                20.                   1393400200555 
3051.1     0.8           6.7                20.                   1393400200556 
3074.2     0.6           5.                 20.                   1393400200557 
3093.1     1.2           2.9                30.                   1393400200558 
3112.2     1.0           3.6                30.                   1393400200559 
3185.8     0.4          30.                 10.                   1393400200560 
3216.9     0.8           9.3                20.                   1393400200561 
3263.3     1.5           2.6                                      1393400200562 
3269.4     0.6           6.7                20.                   1393400200563 
3288.9     0.4          32.3                10.                   1393400200564 
ENDDATA            525          0                                 1393400200565 
ENDSUBENT          564          0                                 1393400299999 
SUBENT        13934003   20041203                             00001393400300001 
BIB                  9         25                                 1393400300002 
REACTION   (80-HG-199(N,G)80-HG-200,,SPC,,REL)                    1393400300003 
FACILITY  1(REAC,1USABNL) High Flux Beam Reactor                  1393400300004 
          2(SPECC,2DENRIS) Riso bent-crystal spectrometer.        1393400300005 
INC-SPECT 2Thermal neutron spectrum                               1393400300006 
DETECTOR  1 Riso bent crystal spectrometer with                   1393400300007 
            resolution of 400 eV at 1 MeV.                        1393400300008 
          2(GELI) GeLi. detectors of 40 cm3. Typical energy       1393400300009 
            resolution is 2.5 keV FWHM for the 60Co lines.        1393400300010 
SAMPLE    1At Riso: 37 mg of HgS with 97 % of 199Hg               1393400300011 
          2At BNL: 70 mg HgO with 97 % of 199Hg.                  1393400300012 
CORRECTION1 For the bent-crystal spectrometer, the intensities    1393400300013 
            were corrected for the reflectivity of the crystal,   1393400300014 
            absorption between source and detector, self-         1393400300015 
            absorption in the gamma-ray source, and detector      1393400300016 
            efficiency.                                           1393400300017 
          2 For the GeLi, peak intensities were corrected for     1393400300018 
            detector efficiency and absorption and normalized     1393400300019 
            to the relative intensities of the bent-crystal       1393400300020 
            spectrometer measurements.                            1393400300021 
MONITOR   2 For the GeLi, energy calibration was made by          1393400300022 
            comparison with bent-crystal spectrometer energies    1393400300023 
            for some of the strongest lines between 1 and 2 MeV.  1393400300024 
ERR-ANALYS (DATA-ERR) If not given, intensity errors are          1393400300025 
           > 40%.                                                 1393400300026 
STATUS     Data taken from table 3 of the journal article         1393400300027 
ENDBIB              25          0                                 1393400300028 
COMMON               1          3                                 1393400300029 
EN                                                                1393400300030 
EV                                                                1393400300031 
33.5                                                              1393400300032 
ENDCOMMON            3          0                                 1393400300033 
DATA                 4         47                                 1393400300034 
E          DATA       DATA-MAX   DATA-ERR                         1393400300035 
KEV        ARB-UNITS  ARB-UNITS  PER-CENT                         1393400300036 
8028.3      42.9                  5.                              1393400300037 
7661.2                0.2                                         1393400300038 
6999.5       0.28                40.                              1393400300039 
6774.7       9.5                 10.                              1393400300040 
6515.0       0.66                50.                              1393400300041 
6458.6     100.                   5.                              1393400300042 
6436.2       6.6                 10.                              1393400300043 
6398.6       4.1                 10.                              1393400300044 
6387.9       8.0                 10.                              1393400300045 
6311.3       2.7                 30.                              1393400300046 
6298.7                0.8                                         1393400300047 
6171.7       5.1                 10.                              1393400300048 
6055.7       6.7                 10.                              1393400300049 
5967.8       4.3                 10.                              1393400300050 
5953.8       1.2                 40.                              1393400300051 
5912.2       2.6                 15.                              1393400300052 
5901.6      32.9                  5.                              1393400300053 
5839.6      16.0                  5.                              1393400300054 
5799.3       2.7                 15.                              1393400300055 
5782.4       8.9                 10.                              1393400300056 
5753.8       1.7                 20.                              1393400300057 
5739.5                0.3                                         1393400300058 
5732.1      13.4                 15.                              1393400300059 
5658.5      41.3                  5.                              1393400300060 
5616.4       7.2                 10.                              1393400300061 
5566.1       5.3                 10.                              1393400300062 
5536.3                0.5                                         1393400300063 
5465.8       1.6                 30.                              1393400300064 
5388.4      17.6                  5.                              1393400300065 
5336.4       4.9                 10.                              1393400300066 
5326.4      14.5                  5.                              1393400300067 
5264.8       2.3                 25.                              1393400300068 
5232.6       4.5                 10.                              1393400300069 
5196.0                0.5                                         1393400300070 
5173.6                0.5                                         1393400300071 
5166.5      14.1                  5.                              1393400300072 
5148.7       1.3                 40.                              1393400300073 
5087.0       4.4                 10.                              1393400300074 
5077.8      11.6                  5.                              1393400300075 
5048.8       6.1                 10.                              1393400300076 
5000.4       8.5                 10.                              1393400300077 
4985.8       6.3                 10.                              1393400300078 
4965.1       2.0                 20.                              1393400300079 
4952.3       1.8                 20.                              1393400300080 
4846.3      10.4                 10.                              1393400300081 
4829.5                0.5                                         1393400300082 
4799.2                0.5                                         1393400300083 
ENDDATA             49          0                                 1393400300084 
ENDSUBENT           83          0                                 1393400399999 
SUBENT        13934004   20041203                             00001393400400001 
BIB                  6         10                                 1393400400002 
REACTION   (80-HG-199(N,G)80-HG-200,,SPC,,REL)                    1393400400003 
FACILITY   (REAC,1USABNL) High Flux Beam Reactor                  1393400400004 
            48 m flight-path station                              1393400400005 
DETECTOR   (GE-IN) Ge planar diode detector 10 cm3. Typical energy1393400400006 
            resolution is 7 keV FWHM at 8 MeV.                    1393400400007 
SAMPLE     Natural mercury target 12.7 cm x 12.7 cm x 0.42 cm     1393400400008 
           containing 927.3 g of metallic mercury.                1393400400009 
ERR-ANALYS (DATA-ERR) If not given, intensity errors are          1393400400010 
           > 40%.                                                 1393400400011 
STATUS     Data taken from table 3 of the journal article         1393400400012 
ENDBIB              10          0                                 1393400400013 
NOCOMMON             0          0                                 1393400400014 
DATA                 5         94                                 1393400400015 
EN         E          DATA       DATA-MAX   DATA-ERR              1393400400016 
EV         KEV        ARB-UNITS  ARB-UNITS  PER-CENT              1393400400017 
129.7      8028.3                0.30                             1393400400018 
129.7      7661.2                0.4                              1393400400019 
129.7      6999.5                0.4                              1393400400020 
129.7      6774.7       0.58                70.                   1393400400021 
129.7      6515.0                0.6                              1393400400022 
129.7      6458.6      13.9                 10.                   1393400400023 
129.7      6436.2       0.85                70.                   1393400400024 
129.7      6398.6       3.6                 20.                   1393400400025 
129.7      6387.9                0.8                              1393400400026 
129.7      6311.3      12.5                 10.                   1393400400027 
129.7      6298.7                1.0                              1393400400028 
129.7      6171.7                1.0                              1393400400029 
129.7      6055.7                1.0                              1393400400030 
129.7      5967.8      38.8                  5.                   1393400400031 
129.7      5953.8       1.3                 70.                   1393400400032 
129.7      5912.2                1.0                              1393400400033 
129.7      5901.6                1.0                              1393400400034 
129.7      5839.6       2.6                 40.                   1393400400035 
129.7      5799.3      26.1                  5.                   1393400400036 
129.7      5782.4       1.2                 70.                   1393400400037 
129.7      5753.8                1.0                              1393400400038 
129.7      5739.5                1.0                              1393400400039 
129.7      5732.1      69.1                  5.                   1393400400040 
129.7      5658.5       8.7                 10.                   1393400400041 
129.7      5616.4                1.0                              1393400400042 
129.7      5566.1      16.1                  5.                   1393400400043 
129.7      5536.3       2.4                 30.                   1393400400044 
129.7      5465.8                1.0                              1393400400045 
129.7      5388.4       3.3                 30.                   1393400400046 
129.7      5336.4                0.9                              1393400400047 
129.7      5326.4                0.9                              1393400400048 
129.7      5264.8      15.7                 10.                   1393400400049 
129.7      5232.6                0.9                              1393400400050 
129.7      5196.0       3.2                 30.                   1393400400051 
129.7      5173.6                1.0                              1393400400052 
129.7      5166.5                0.9                              1393400400053 
129.7      5148.7      11.7                 10.                   1393400400054 
129.7      5087.0                0.9                              1393400400055 
129.7      5077.8                0.9                              1393400400056 
129.7      5048.8       4.0                 20.                   1393400400057 
129.7      5000.4                0.9                              1393400400058 
129.7      4985.8       2.2                 50.                   1393400400059 
129.7      4965.1       3.1                 35.                   1393400400060 
129.7      4952.3      30.0                 10.                   1393400400061 
129.7      4846.3       7.1                 25.                   1393400400062 
129.7      4829.5                0.1                              1393400400063 
129.7      4799.2                0.1                              1393400400064 
157.1      8028.3      2.3                  20.                   1393400400065 
157.1      7661.2     15.9                  10.                   1393400400066 
157.1      6999.5     13.3                  10.                   1393400400067 
157.1      6774.7                0.5                              1393400400068 
157.1      6515.0                0.5                              1393400400069 
157.1      6458.6     19.0                  10.                   1393400400070 
157.1      6436.2      4.7                  15.                   1393400400071 
157.1      6398.6                0.7                              1393400400072 
157.1      6387.9                0.7                              1393400400073 
157.1      6311.3      8.5                  15.                   1393400400074 
157.1      6298.7      7.5                  15.                   1393400400075 
157.1      6171.7      8.8                  10.                   1393400400076 
157.1      6055.7      1.7                  40.                   1393400400077 
157.1      5967.8      7.4                  15.                   1393400400078 
157.1      5953.8      7.4                  15.                   1393400400079 
157.1      5912.2     10.0                  10.                   1393400400080 
157.1      5901.6      1.7                  20.                   1393400400081 
157.1      5839.6     16.7                  10.                   1393400400082 
157.1      5799.3                0.7                              1393400400083 
157.1      5782.4      5.1                  15.                   1393400400084 
157.1      5753.8      2.7                  20.                   1393400400085 
157.1      5739.5     23.9                   5.                   1393400400086 
157.1      5732.1     20.1                   5.                   1393400400087 
157.1      5658.5      2.9                  30.                   1393400400088 
157.1      5616.4     17.7                   5.                   1393400400089 
157.1      5566.1                0.9                              1393400400090 
157.1      5536.3     71.7                   5.                   1393400400091 
157.1      5465.8      8.9                  10.                   1393400400092 
157.1      5388.4     11.1                  10.                   1393400400093 
157.1      5336.4                0.8                              1393400400094 
157.1      5326.4      5.4                  15.                   1393400400095 
157.1      5264.8                0.8                              1393400400096 
157.1      5232.6      1.4                  60.                   1393400400097 
157.1      5196.0                0.8                              1393400400098 
157.1      5173.6      2.0                  20.                   1393400400099 
157.1      5166.5      5.0                  20.                   1393400400100 
157.1      5148.7                0.8                              1393400400101 
157.1      5087.0                0.8                              1393400400102 
157.1      5077.8     11.7                  10.                   1393400400103 
157.1      5048.8      2.9                  25.                   1393400400104 
157.1      5000.4                0.8                              1393400400105 
157.1      4985.8      4.5                  20.                   1393400400106 
157.1      4965.1      2.3                  20.                   1393400400107 
157.1      4952.3      6.4                  10.                   1393400400108 
157.1      4846.3     14.2                  10.                   1393400400109 
157.1      4829.5      6.4                  15.                   1393400400110 
157.1      4799.2     21.9                  5.                    1393400400111 
ENDDATA             96          0                                 1393400400112 
ENDSUBENT          111          0                                 1393400499999 
ENDENTRY             4          0                                 1393499999999 
