ENTRY            13958   20050125                             13321395800000001 
SUBENT        13958001   20050125                             13321395800100001 
BIB                  8         11                                 1395800100002 
INSTITUTE  (1USAORL)                                              1395800100003 
REFERENCE  (C,99SANTA,,737,1999)                                  1395800100004 
AUTHOR     (K.H.Guber,L.C.Leal,R.O.Sayer,R.R.Spencer,P.E.Koehler, 1395800100005 
            R.Q.Wright,J.A.Harvey,N.W.Hill)                       1395800100006 
TITLE      Neutron capture and neutron total cross sections       1395800100007 
            measurements for 27Al at the Oak Ridge Electron       1395800100008 
            Linear Accelerator                                    1395800100009 
FACILITY   (ACCEL,1USAORL) ORELA                                  1395800100010 
SAMPLE     High purity rectangular aluminium                      1395800100011 
DETECTOR   (SCIN) Glass scintillator 6Li                          1395800100012 
HISTORY    (20050125C) DR                                         1395800100013 
ENDBIB              11          0                                 1395800100014 
NOCOMMON             0          0                                 1395800100015 
ENDSUBENT           14          0                                 1395800199999 
SUBENT        13958002   20050125                             13321395800200001 
BIB                  3          5                                 1395800200002 
REACTION  1(13-AL-27(N,0),,EN)                                    1395800200003 
          2(13-AL-27(N,G),,WID/RED,,RMT)                          1395800200004 
          3(13-AL-27(N,EL),,WID/RED,,RMT)                         1395800200005 
ERR-ANALYS No information given                                   1395800200006 
STATUS     Data taken from Table 1 of the journal article         1395800200007 
ENDBIB               5          0                                 1395800200008 
NOCOMMON             0          0                                 1395800200009 
DATA                 3         29                                 1395800200010 
DATA      1DATA      2DATA-MAX  3                                 1395800200011 
EV         MILLI-EV   MILLI-EV                                    1395800200012 
  5906.5    526.30       16708.                                   1395800200013 
 34765.1   1980.50     3245200.                                   1395800200014 
 86183.2   1065.60    10361000.                                   1395800200015 
 90744.3     77.74       14586.                                   1395800200016 
 91413.1     51.05      202150.                                   1395800200017 
 92033.3    215.34        3542.5                                  1395800200018 
 99789.6    931.90        4392.5                                  1395800200019 
103928.5    399.44        5367.4                                  1395800200020 
119976.6   1258.20     2688100.                                   1395800200021 
142897.3   1655.00    18317000.                                   1395800200022 
146217.7    253.29      114570.                                   1395800200023 
158457.4    220.40     3351000.                                   1395800200024 
203459.6   1406.60    15829000.                                   1395800200025 
203884.8    843.28         361.6                                  1395800200026 
224322.3    312.41      414130.                                   1395800200027 
257603.3    236.24      797830.                                   1395800200028 
261040.0    569.51       44885.                                   1395800200029 
268867.4    183.19       73206.                                   1395800200030 
280558.4   1512.50    14567000.                                   1395800200031 
316902.9   2950.70     8061400.                                   1395800200032 
345458.0    432.58       20379.                                   1395800200033 
360695.4   2002.20       56494.                                   1395800200034 
368784.7   1502.50     3651300.                                   1395800200035 
366669.9   1235.10     5129200.                                   1395800200036 
376037.6   1390.30     2850300.                                   1395800200037 
386912.3   1297.30     2395600.                                   1395800200038 
415782.8   1912.00    21910000.                                   1395800200039 
420980.7   1032.30      309070.                                   1395800200040 
430293.1   1997.10    52612000.                                   1395800200041 
ENDDATA             31          0                                 1395800200042 
ENDSUBENT           41          0                                 1395800299999 
ENDENTRY             2          0                                 1395899999999 
