ENTRY            14105   20060612                             13401410500000001 
SUBENT        14105001   20060612                             13401410500100001 
BIB                 11         25                                 1410500100002 
INSTITUTE  (1USARPI,1USALAS,1USABNL,2FR BRC)                      1410500100003 
REFERENCE  (J,NIM/A,562,771,2006)                                 1410500100004 
AUTHOR     (C.Romano,Y.Danon,R.C.Haight,S.A.Wender,D.J.Vieira,    1410500100005 
            E.M.Bond,R.S.Rundberg,J.B.Wilhelmy,J.M.O'Donnell,     1410500100006 
            A.F.Michaudon,T.A.Bredeweg,D.Rochman,T.Granier,       1410500100007 
            T.Ethvignot)                                          1410500100008 
TITLE      Measurements of (n,alpha) cross-section of small       1410500100009 
            samples using a lead-slowing-down-spectrometer        1410500100010 
FACILITY   (LINAC,1USALAS) Los Alamos Neutron Science Center      1410500100011 
            (LANSCE)                                              1410500100012 
INC-SOURCE (SPALL) A lead-slowing-down-spectrometer (LSDS),       1410500100013 
            and pulses of 800 MeV protons from the Proton         1410500100014 
            Storage Ring.                                         1410500100015 
DETECTOR   (IOCH) a compensated ionization chamber (CIC)          1410500100016 
SAMPLE     -LiF sample 91 +/-29 mg/cm2 with an area of            1410500100017 
            0.7 cm2 (1.1+/-0.4 mg 6Li) deposited on a 20          1410500100018 
            mil thick titanium backing was used as the            1410500100019 
            cathode in the CIC with the sample facing the         1410500100020 
            top plate.                                            1410500100021 
           -62+/-7 mg/cm2 with an area of 0.7 cm2 of LiF          1410500100022 
            (0.76+/-0.09 mg 6Li) and the proton beam current      1410500100023 
            was increased to 300 nA                               1410500100024 
METHOD     (TOF) Time-of-flight                                   1410500100025 
ERR-ANALYS (ERR-S) Statistical uncertainty                        1410500100026 
HISTORY    (20060612C) DR                                         1410500100027 
ENDBIB              25          0                                 1410500100028 
NOCOMMON             0          0                                 1410500100029 
ENDSUBENT           28          0                                 1410500199999 
SUBENT        14105002   20060612                             13401410500200001 
BIB                  2          2                                 1410500200002 
REACTION   (3-LI-6(N,T)2-HE-4,,SIG)                               1410500200003 
STATUS     Data received from author (Fig.3 top)                  1410500200004 
ENDBIB               2          0                                 1410500200005 
NOCOMMON             0          0                                 1410500200006 
DATA                 3        130                                 1410500200007 
EN         DATA       ERR-S                                       1410500200008 
EV         B          B                                           1410500200009 
1056.        3.681    0.122                                       1410500200010 
 990.388     3.463    0.122                                       1410500200011 
 927.523     4.587    0.136                                       1410500200012 
 870.458     4.172    0.142                                       1410500200013 
 818.503     4.538    0.144                                       1410500200014 
 768.402     4.186    0.143                                       1410500200015 
 720.35      4.945    0.152                                       1410500200016 
 676.668     5.755    0.178                                       1410500200017 
 636.842     5.209    0.165                                       1410500200018 
 598.602     5.582    0.176                                       1410500200019 
 562.042     4.739    0.16                                        1410500200020 
 528.731     5.569    0.187                                       1410500200021 
 498.297     6.095    0.192                                       1410500200022 
 467.884     6.713    0.199                                       1410500200023 
 440.173     6.647    0.213                                       1410500200024 
 414.852     6.046    0.2                                         1410500200025 
 390.691     7.107    0.224                                       1410500200026 
 367.701     6.487    0.211                                       1410500200027 
 346.682     7.778    0.248                                       1410500200028 
 326.678     7.103    0.226                                       1410500200029 
 307.683     7.187    0.243                                       1410500200030 
 290.298     8.656    0.264                                       1410500200031 
 273.78      8.35     0.267                                       1410500200032 
 258.116     9.003    0.276                                       1410500200033 
 243.285     8.999    0.284                                       1410500200034 
 229.263     8.83     0.28                                        1410500200035 
 216.419     9.368    0.307                                       1410500200036 
 204.261     9.411    0.297                                       1410500200037 
 192.433     9.815    0.313                                       1410500200038 
 181.603     9.096    0.31                                        1410500200039 
 171.382    11.309    0.346                                       1410500200040 
 161.744    11.452    0.358                                       1410500200041 
 152.661    10.256    0.339                                       1410500200042 
 144.106    11.481    0.37                                        1410500200043 
 136.053    12.508    0.387                                       1410500200044 
 128.475    11.799    0.387                                       1410500200045 
 121.346    12.254    0.396                                       1410500200046 
 114.489    13.264    0.414                                       1410500200047 
 108.057    14.588    0.447                                       1410500200048 
 102.023    13.877    0.439                                       1410500200049 
  96.245    15.876    0.473                                       1410500200050 
  90.837    13.79     0.454                                       1410500200051 
  85.773    15.345    0.483                                       1410500200052 
  81.03     15.813    0.504                                       1410500200053 
  76.502    15.67     0.497                                       1410500200054 
  72.191    18.067    0.55                                        1410500200055 
  68.164    18.766    0.566                                       1410500200056 
  64.4      17.102    0.556                                       1410500200057 
  60.821    19.432    0.59                                        1410500200058 
  57.424    19.814    0.613                                       1410500200059 
  54.204    20.029    0.614                                       1410500200060 
  51.156    20.437    0.639                                       1410500200061 
  48.317    20.503    0.649                                       1410500200062 
  45.63     20.115    0.652                                       1410500200063 
  43.091    22.336    0.697                                       1410500200064 
  40.661    22.583    0.702                                       1410500200065 
  38.372    21.963    0.713                                       1410500200066 
  36.243    24.401    0.763                                       1410500200067 
  34.212    23.523    0.752                                       1410500200068 
  32.278    25.143    0.791                                       1410500200069 
  30.462    27.837    0.847                                       1410500200070 
  28.756    24.511    0.809                                       1410500200071 
  27.137    27.415    0.861                                       1410500200072 
  25.602    28.235    0.89                                        1410500200073 
  24.165    30.625    0.945                                       1410500200074 
  22.804    28.497    0.919                                       1410500200075 
  21.505    30.493    0.96                                        1410500200076 
  20.28     31.284    0.993                                       1410500200077 
  19.126    33.084    1.032                                       1410500200078 
  18.038    34.49     1.076                                       1410500200079 
  17.015    34.785    1.094                                       1410500200080 
  16.044    37.707    1.154                                       1410500200081 
  15.124    37.626    1.168                                       1410500200082 
  14.255    40.175    1.225                                       1410500200083 
  13.434    40.699    1.251                                       1410500200084 
  12.659    40.905    1.274                                       1410500200085 
  11.924    41.32     1.292                                       1410500200086 
  11.227    43.249    1.344                                       1410500200087 
  10.573    45.812    1.408                                       1410500200088 
   9.955    45.267    1.415                                       1410500200089 
   9.371    48.897    1.498                                       1410500200090 
   8.821    46.153    1.474                                       1410500200091 
   8.297    50.625    1.556                                       1410500200092 
   7.802    51.343    1.6                                         1410500200093 
   7.335    54.144    1.659                                       1410500200094 
   6.893    54.153    1.687                                       1410500200095 
   6.478    57.205    1.763                                       1410500200096 
   6.086    58.106    1.799                                       1410500200097 
   5.715    59.887    1.852                                       1410500200098 
   5.362    60.249    1.876                                       1410500200099 
   5.029    63.103    1.951                                       1410500200100 
   4.716    64.431    2.005                                       1410500200101 
   4.419    67.451    2.071                                       1410500200102 
   4.139    61.705    2.018                                       1410500200103 
   3.875    66.511    2.12                                        1410500200104 
   3.625    70.267    2.201                                       1410500200105 
   3.389    65.739    2.169                                       1410500200106 
   3.166    72.418    2.305                                       1410500200107 
   2.955    76.536    2.396                                       1410500200108 
   2.757    78.774    2.47                                        1410500200109 
   2.569    79.71     2.521                                       1410500200110 
   2.392    80.445    2.559                                       1410500200111 
   2.225    92.004    2.779                                       1410500200112 
   2.068    86.144    2.728                                       1410500200113 
   1.919    90.756    2.833                                       1410500200114 
   1.779    95.073    2.941                                       1410500200115 
   1.647   100.491    3.061                                       1410500200116 
   1.522   108.769    3.231                                       1410500200117 
   1.405   114.883    3.366                                       1410500200118 
   1.294   112.796    3.378                                       1410500200119 
   1.19    124.508    3.594                                       1410500200120 
   1.092   129.868    3.724                                       1410500200121 
   1.      145.063    3.99                                        1410500200122 
   0.914   147.87     4.082                                       1410500200123 
   0.833   162.224    4.336                                       1410500200124 
   0.757   164.383    4.425                                       1410500200125 
   0.686   173.766    4.616                                       1410500200126 
   0.619   188.113    4.867                                       1410500200127 
   0.557   203.51     5.143                                       1410500200128 
   0.499   201.364    5.189                                       1410500200129 
   0.444   214.785    5.445                                       1410500200130 
   0.394   237.408    5.818                                       1410500200131 
   0.347   249.448    6.064                                       1410500200132 
   0.304   270.993    6.438                                       1410500200133 
   0.264   272.866    6.587                                       1410500200134 
   0.228   294.232    6.98                                        1410500200135 
   0.194   328.88     7.555                                       1410500200136 
   0.164   330.777    7.771                                       1410500200137 
   0.136   364.537    8.396                                       1410500200138 
   0.112   413.273    9.243                                       1410500200139 
ENDDATA            132          0                                 1410500200140 
ENDSUBENT          139          0                                 1410500299999 
ENDENTRY             2          0                                 1410599999999 
