ENTRY            14130   20070411                             13431413000000001 
SUBENT        14130001   20070411                             13431413000100001 
BIB                 11         21                                 1413000100002 
INSTITUTE  (1USALAS)                                              1413000100003 
REFERENCE  (J,PR/C,75,034610,2007)                                1413000100004 
AUTHOR     (F.Tovesson,T.S.Hill)                                  1413000100005 
TITLE      Neutron induced fission cross section of 237Np from    1413000100006 
            100 keV to 200 MeV                                    1413000100007 
FACILITY   (ACCEL,1USALAS) LANSCE accelerator at Los Alamos       1413000100008 
INC-SPECT  WNR center, spallation target, 90-degree left flight   1413000100009 
            path, 9.84 meters                                     1413000100010 
DETECTOR   (FISCH) Event counting was achieved by detecting       1413000100011 
            fission fragments in a gas-filled parallel-plate      1413000100012 
            ionization chamber                                    1413000100013 
SAMPLE     For this experiment the following samples were mounted:1413000100014 
            237Np (5.6 mg), 238U (11.4 mg), 235U (15.5 mg), and   1413000100015 
            a blank backing foil. The sample deposits were        1413000100016 
            13.3 cm in diameter.                                  1413000100017 
METHOD     (TOF)                                                  1413000100018 
MONITOR    The 235U sample was used for neutron flux monitoring,  1413000100019 
            the 238U sample for measuring beam-related background 1413000100020 
            events, and the blank foil to monitor neutron-induced 1413000100021 
            charged-particle emission from the sample backings.   1413000100022 
HISTORY    (20070411C) DR                                         1413000100023 
ENDBIB              21          0                                 1413000100024 
NOCOMMON             0          0                                 1413000100025 
ENDSUBENT           24          0                                 1413000199999 
SUBENT        14130002   20070411                             13431413000200001 
BIB                  3          3                                 1413000200002 
REACTION   ((93-NP-237(N,F),,SIG)/(92-U-235(N,F),,SIG))           1413000200003 
ERR-ANALYS (ERR-T) Total uncertainties                            1413000200004 
STATUS     Data received from F. Tovesson on April 2007           1413000200005 
ENDBIB               3          0                                 1413000200006 
NOCOMMON             0          0                                 1413000200007 
DATA                 3        660                                 1413000200008 
EN         DATA       ERR-T                                       1413000200009 
EV         NO-DIM     NO-DIM                                      1413000200010 
 1.0058E+05 0.019641  0.0149375                                   1413000200011 
 1.0174E+05 0.0418093 0.0157872                                   1413000200012 
 1.0292E+05 0.0274231 0.0144341                                   1413000200013 
 1.0411E+05 0.0447181 0.0142638                                   1413000200014 
 1.0532E+05 0.0216455 0.0140757                                   1413000200015 
 1.0654E+05 0.0236944 0.0143174                                   1413000200016 
 1.0777E+05 0.023461  0.0149926                                   1413000200017 
 1.0902E+05 0.0387153 0.0146204                                   1413000200018 
 1.1028E+05 0.0565318 0.0144747                                   1413000200019 
 1.1156E+05 0.0290959 0.0148916                                   1413000200020 
 1.1285E+05 0.0466514 0.0141054                                   1413000200021 
 1.1416E+05 0.0241021 0.0125589                                   1413000200022 
 1.1548E+05 0.0439855 0.0130305                                   1413000200023 
 1.1682E+05 0.0423974 0.0127327                                   1413000200024 
 1.1817E+05 0.0327203 0.011493                                    1413000200025 
 1.1954E+05 0.0374038 0.0118159                                   1413000200026 
 1.2092E+05 0.0308338 0.0125264                                   1413000200027 
 1.2232E+05 0.0184408 0.0112516                                   1413000200028 
 1.2374E+05 0.0327566 0.0113041                                   1413000200029 
 1.2517E+05 0.0299656 0.01083                                     1413000200030 
 1.2662E+05 0.0334394 0.0106237                                   1413000200031 
 1.2809E+05 0.0319214 0.0111512                                   1413000200032 
 1.2957E+05 0.0310185 0.0121108                                   1413000200033 
 1.3107E+05 0.0165257 0.0099475                                   1413000200034 
 1.3259E+05 0.0388327 0.00979993                                  1413000200035 
 1.3412E+05 0.0275399 0.0089342                                   1413000200036 
 1.3568E+05 0.0353944 0.00864401                                  1413000200037 
 1.3725E+05 0.0429262 0.00959032                                  1413000200038 
 1.3884E+05 0.0409193 0.0116938                                   1413000200039 
 1.4045E+05 0.0335496 0.0132635                                   1413000200040 
 1.4207E+05 0.0337653 0.0117574                                   1413000200041 
 1.4372E+05 0.0379947 0.0113058                                   1413000200042 
 1.4538E+05 0.0358115 0.0104126                                   1413000200043 
 1.4706E+05 0.0371191 0.00987343                                  1413000200044 
 1.4877E+05 0.0495759 0.00982049                                  1413000200045 
 1.5049E+05 0.0303806 0.00916679                                  1413000200046 
 1.5223E+05 0.0325959 0.00884899                                  1413000200047 
 1.5400E+05 0.0341034 0.00849105                                  1413000200048 
 1.5578E+05 0.0400601 0.00889793                                  1413000200049 
 1.5758E+05 0.0380147 0.00859699                                  1413000200050 
 1.5941E+05 0.0419896 0.00882234                                  1413000200051 
 1.6125E+05 0.0280602 0.00549984                                  1413000200052 
 1.6312E+05 0.030587  0.00536856                                  1413000200053 
 1.6501E+05 0.0358996 0.00523379                                  1413000200054 
 1.6692E+05 0.0394447 0.00525205                                  1413000200055 
 1.6885E+05 0.0380609 0.006011                                    1413000200056 
 1.7081E+05 0.0304439 0.00530262                                  1413000200057 
 1.7279E+05 0.0388125 0.00534112                                  1413000200058 
 1.7479E+05 0.0312315 0.00493152                                  1413000200059 
 1.7681E+05 0.0353509 0.00474562                                  1413000200060 
 1.7886E+05 0.0339356 0.00464338                                  1413000200061 
 1.8093E+05 0.0370617 0.00434539                                  1413000200062 
 1.8302E+05 0.0334012 0.0041771                                   1413000200063 
 1.8514E+05 0.0374045 0.00471619                                  1413000200064 
 1.8729E+05 0.0393961 0.00540884                                  1413000200065 
 1.8946E+05 0.0334519 0.00510719                                  1413000200066 
 1.9165E+05 0.0416798 0.00486415                                  1413000200067 
 1.9387E+05 0.0425124 0.00467703                                  1413000200068 
 1.9611E+05 0.0347456 0.00462814                                  1413000200069 
 1.9838E+05 0.0418326 0.00457743                                  1413000200070 
 2.0068E+05 0.0399794 0.00433104                                  1413000200071 
 2.0301E+05 0.0307806 0.00413932                                  1413000200072 
 2.0536E+05 0.0374762 0.0042278                                   1413000200073 
 2.0773E+05 0.032934  0.00411861                                  1413000200074 
 2.1014E+05 0.0393756 0.00420027                                  1413000200075 
 2.1257E+05 0.0345263 0.00395759                                  1413000200076 
 2.1503E+05 0.036002  0.00388044                                  1413000200077 
 2.1752E+05 0.0405573 0.00387884                                  1413000200078 
 2.2004E+05 0.0363836 0.00406233                                  1413000200079 
 2.2259E+05 0.0401407 0.00394952                                  1413000200080 
 2.2517E+05 0.0391362 0.00392162                                  1413000200081 
 2.2778E+05 0.0425404 0.00370864                                  1413000200082 
 2.3041E+05 0.0356453 0.00368391                                  1413000200083 
 2.3308E+05 0.0397253 0.00379651                                  1413000200084 
 2.3578E+05 0.0408347 0.00372988                                  1413000200085 
 2.3851E+05 0.0384206 0.00353843                                  1413000200086 
 2.4127E+05 0.0455815 0.00354537                                  1413000200087 
 2.4407E+05 0.0420979 0.0036445                                   1413000200088 
 2.4689E+05 0.0409771 0.00353031                                  1413000200089 
 2.4975E+05 0.0387675 0.00352162                                  1413000200090 
 2.5264E+05 0.0388491 0.0034372                                   1413000200091 
 2.5557E+05 0.0422678 0.00345221                                  1413000200092 
 2.5853E+05 0.0397044 0.00321264                                  1413000200093 
 2.6152E+05 0.0434233 0.00319356                                  1413000200094 
 2.6455E+05 0.0532875 0.00329137                                  1413000200095 
 2.6761E+05 0.0475925 0.00306558                                  1413000200096 
 2.7071E+05 0.0486598 0.00302752                                  1413000200097 
 2.7385E+05 0.0506125 0.00339817                                  1413000200098 
 2.7702E+05 0.055195  0.00364984                                  1413000200099 
 2.8023E+05 0.0518665 0.0034121                                   1413000200100 
 2.8347E+05 0.048237  0.00319748                                  1413000200101 
 2.8675E+05 0.0549376 0.00322112                                  1413000200102 
 2.9007E+05 0.0568854 0.00322888                                  1413000200103 
 2.9343E+05 0.0596455 0.00312014                                  1413000200104 
 2.9683E+05 0.0576015 0.00297956                                  1413000200105 
 3.0027E+05 0.0613394 0.00291595                                  1413000200106 
 3.0374E+05 0.0612151 0.00286136                                  1413000200107 
 3.0726E+05 0.0684346 0.00282507                                  1413000200108 
 3.1082E+05 0.0673977 0.00283849                                  1413000200109 
 3.1442E+05 0.0660832 0.00298538                                  1413000200110 
 3.1806E+05 0.0699674 0.00311849                                  1413000200111 
 3.2174E+05 0.0790457 0.00310357                                  1413000200112 
 3.2547E+05 0.0742515 0.00303044                                  1413000200113 
 3.2924E+05 0.0801926 0.00305071                                  1413000200114 
 3.3305E+05 0.0826255 0.00297386                                  1413000200115 
 3.3691E+05 0.0790489 0.0028729                                   1413000200116 
 3.4081E+05 0.0884838 0.00289338                                  1413000200117 
 3.4475E+05 0.0900259 0.00287114                                  1413000200118 
 3.4874E+05 0.090565  0.00278245                                  1413000200119 
 3.5278E+05 0.0905535 0.00276555                                  1413000200120 
 3.5687E+05 0.104662  0.00301872                                  1413000200121 
 3.6100E+05 0.108492  0.00313795                                  1413000200122 
 3.6518E+05 0.109309  0.00300993                                  1413000200123 
 3.6941E+05 0.116798  0.00295758                                  1413000200124 
 3.7369E+05 0.121869  0.00289629                                  1413000200125 
 3.7801E+05 0.123579  0.00306199                                  1413000200126 
 3.8239E+05 0.131198  0.0031961                                   1413000200127 
 3.8682E+05 0.134884  0.00321738                                  1413000200128 
 3.9130E+05 0.143051  0.00322068                                  1413000200129 
 3.9583E+05 0.150586  0.00324456                                  1413000200130 
 4.0041E+05 0.153444  0.00323111                                  1413000200131 
 4.0505E+05 0.16652   0.00340764                                  1413000200132 
 4.0974E+05 0.174434  0.00342493                                  1413000200133 
 4.1448E+05 0.186032  0.00359171                                  1413000200134 
 4.1928E+05 0.199464  0.00358693                                  1413000200135 
 4.2414E+05 0.215814  0.0037575                                   1413000200136 
 4.2905E+05 0.227439  0.00394616                                  1413000200137 
 4.3402E+05 0.239805  0.00392492                                  1413000200138 
 4.3904E+05 0.245997  0.00397254                                  1413000200139 
 4.4413E+05 0.266904  0.00410748                                  1413000200140 
 4.4927E+05 0.279322  0.00405633                                  1413000200141 
 4.5447E+05 0.295566  0.00413808                                  1413000200142 
 4.5974E+05 0.297468  0.00405102                                  1413000200143 
 4.6506E+05 0.324645  0.0041941                                   1413000200144 
 4.7044E+05 0.334041  0.00433748                                  1413000200145 
 4.7589E+05 0.365859  0.00451595                                  1413000200146 
 4.8140E+05 0.373492  0.00448305                                  1413000200147 
 4.8698E+05 0.393465  0.0046552                                   1413000200148 
 4.9262E+05 0.404544  0.00456126                                  1413000200149 
 4.9832E+05 0.409199  0.00463084                                  1413000200150 
 5.0409E+05 0.428135  0.00465687                                  1413000200151 
 5.0993E+05 0.442112  0.00478972                                  1413000200152 
 5.1583E+05 0.467771  0.00486424                                  1413000200153 
 5.2180E+05 0.472828  0.00482723                                  1413000200154 
 5.2785E+05 0.495231  0.00490913                                  1413000200155 
 5.3396E+05 0.497292  0.00491996                                  1413000200156 
 5.4014E+05 0.526917  0.00511095                                  1413000200157 
 5.4640E+05 0.548625  0.00513349                                  1413000200158 
 5.5272E+05 0.561735  0.00513845                                  1413000200159 
 5.5912E+05 0.575228  0.00523361                                  1413000200160 
 5.6560E+05 0.600296  0.00529651                                  1413000200161 
 5.7215E+05 0.632897  0.00558672                                  1413000200162 
 5.7877E+05 0.649829  0.00552614                                  1413000200163 
 5.8547E+05 0.660695  0.00545803                                  1413000200164 
 5.9225E+05 0.68726   0.00553538                                  1413000200165 
 5.9911E+05 0.709056  0.00561298                                  1413000200166 
 6.0605E+05 0.725301  0.00568111                                  1413000200167 
 6.1307E+05 0.756321  0.00593594                                  1413000200168 
 6.2017E+05 0.770335  0.00588778                                  1413000200169 
 6.2735E+05 0.798559  0.005969                                    1413000200170 
 6.3461E+05 0.82194   0.00603868                                  1413000200171 
 6.4196E+05 0.843135  0.0061501                                   1413000200172 
 6.4939E+05 0.853781  0.0061211                                   1413000200173 
 6.5691E+05 0.879802  0.0062486                                   1413000200174 
 6.6452E+05 0.904549  0.00644011                                  1413000200175 
 6.7221E+05 0.904954  0.00648082                                  1413000200176 
 6.8000E+05 0.92707   0.00645095                                  1413000200177 
 6.8787E+05 0.936485  0.0063828                                   1413000200178 
 6.9584E+05 0.949733  0.00629712                                  1413000200179 
 7.0389E+05 0.971285  0.00639031                                  1413000200180 
 7.1205E+05 0.9757    0.00656906                                  1413000200181 
 7.2029E+05 1.00773   0.00668804                                  1413000200182 
 7.2863E+05 1.02749   0.00663559                                  1413000200183 
 7.3707E+05 1.04066   0.00671971                                  1413000200184 
 7.4560E+05 1.05157   0.00683128                                  1413000200185 
 7.5424E+05 1.0758    0.00694481                                  1413000200186 
 7.6297E+05 1.09273   0.0068774                                   1413000200187 
 7.7180E+05 1.09392   0.00690568                                  1413000200188 
 7.8074E+05 1.1133    0.00698589                                  1413000200189 
 7.8978E+05 1.13329   0.00700179                                  1413000200190 
 7.9893E+05 1.13556   0.00698817                                  1413000200191 
 8.0818E+05 1.14087   0.00691524                                  1413000200192 
 8.1754E+05 1.15974   0.00698352                                  1413000200193 
 8.2700E+05 1.17218   0.00700818                                  1413000200194 
 8.3658E+05 1.17427   0.00699997                                  1413000200195 
 8.4627E+05 1.1874    0.00696041                                  1413000200196 
 8.5607E+05 1.19562   0.007055                                    1413000200197 
 8.6598E+05 1.18404   0.00695884                                  1413000200198 
 8.7601E+05 1.19273   0.00687017                                  1413000200199 
 8.8615E+05 1.18782   0.00684297                                  1413000200200 
 8.9641E+05 1.20352   0.00692601                                  1413000200201 
 9.0679E+05 1.20515   0.0068474                                   1413000200202 
 9.1729E+05 1.22472   0.00688123                                  1413000200203 
 9.2791E+05 1.21713   0.0067778                                   1413000200204 
 9.3866E+05 1.20593   0.00665907                                  1413000200205 
 9.4953E+05 1.21342   0.0066202                                   1413000200206 
 9.6052E+05 1.21962   0.00683313                                  1413000200207 
 9.7164E+05 1.22733   0.00677345                                  1413000200208 
 9.8290E+05 1.21095   0.00674299                                  1413000200209 
 9.9428E+05 1.2179    0.00680538                                  1413000200210 
 1.0058E+06 1.22313   0.00676684                                  1413000200211 
 1.0174E+06 1.23585   0.00671089                                  1413000200212 
 1.0292E+06 1.24022   0.00685498                                  1413000200213 
 1.0411E+06 1.23558   0.00679853                                  1413000200214 
 1.0532E+06 1.2449    0.00680811                                  1413000200215 
 1.0654E+06 1.24086   0.0067267                                   1413000200216 
 1.0777E+06 1.23529   0.00668088                                  1413000200217 
 1.0902E+06 1.24202   0.00667211                                  1413000200218 
 1.1028E+06 1.26314   0.006752                                    1413000200219 
 1.1156E+06 1.25009   0.00674648                                  1413000200220 
 1.1285E+06 1.25902   0.00667176                                  1413000200221 
 1.1416E+06 1.24954   0.00664931                                  1413000200222 
 1.1548E+06 1.25254   0.00657268                                  1413000200223 
 1.1682E+06 1.25624   0.00659709                                  1413000200224 
 1.1817E+06 1.25491   0.00656626                                  1413000200225 
 1.1954E+06 1.25568   0.00659148                                  1413000200226 
 1.2092E+06 1.2801    0.00670923                                  1413000200227 
 1.2232E+06 1.26578   0.00673853                                  1413000200228 
 1.2374E+06 1.28301   0.00668413                                  1413000200229 
 1.2517E+06 1.28622   0.00676585                                  1413000200230 
 1.2662E+06 1.27995   0.00674529                                  1413000200231 
 1.2809E+06 1.28373   0.00673437                                  1413000200232 
 1.2957E+06 1.28291   0.0067592                                   1413000200233 
 1.3107E+06 1.28782   0.00681699                                  1413000200234 
 1.3259E+06 1.28709   0.0068138                                   1413000200235 
 1.3412E+06 1.27976   0.00675511                                  1413000200236 
 1.3568E+06 1.29418   0.00674939                                  1413000200237 
 1.3725E+06 1.2974    0.00680935                                  1413000200238 
 1.3884E+06 1.30448   0.00678318                                  1413000200239 
 1.4045E+06 1.29113   0.00671954                                  1413000200240 
 1.4207E+06 1.29842   0.00672076                                  1413000200241 
 1.4372E+06 1.29332   0.0067397                                   1413000200242 
 1.4538E+06 1.31049   0.0068705                                   1413000200243 
 1.4706E+06 1.29209   0.00668196                                  1413000200244 
 1.4877E+06 1.29978   0.00666061                                  1413000200245 
 1.5049E+06 1.3128    0.00674617                                  1413000200246 
 1.5223E+06 1.29458   0.00672393                                  1413000200247 
 1.5400E+06 1.30514   0.00679565                                  1413000200248 
 1.5578E+06 1.30915   0.0067287                                   1413000200249 
 1.5758E+06 1.30243   0.00672069                                  1413000200250 
 1.5941E+06 1.30514   0.00676823                                  1413000200251 
 1.6125E+06 1.31618   0.00679471                                  1413000200252 
 1.6312E+06 1.31766   0.00676855                                  1413000200253 
 1.6501E+06 1.3165    0.00677814                                  1413000200254 
 1.6692E+06 1.30685   0.00667277                                  1413000200255 
 1.6885E+06 1.31122   0.0066834                                   1413000200256 
 1.7081E+06 1.31242   0.00668545                                  1413000200257 
 1.7279E+06 1.31933   0.00671124                                  1413000200258 
 1.7479E+06 1.30999   0.00671473                                  1413000200259 
 1.7681E+06 1.31696   0.00674776                                  1413000200260 
 1.7886E+06 1.31893   0.00671583                                  1413000200261 
 1.8093E+06 1.32295   0.00671048                                  1413000200262 
 1.8302E+06 1.32163   0.0067584                                   1413000200263 
 1.8514E+06 1.31009   0.00670372                                  1413000200264 
 1.8729E+06 1.2975    0.00664514                                  1413000200265 
 1.8946E+06 1.31589   0.0067144                                   1413000200266 
 1.9165E+06 1.31297   0.00677019                                  1413000200267 
 1.9387E+06 1.30782   0.00670147                                  1413000200268 
 1.9611E+06 1.31153   0.00671042                                  1413000200269 
 1.9838E+06 1.31813   0.00673944                                  1413000200270 
 2.0068E+06 1.32676   0.00679535                                  1413000200271 
 2.0301E+06 1.32036   0.00675913                                  1413000200272 
 2.0536E+06 1.32109   0.00678278                                  1413000200273 
 2.0773E+06 1.32069   0.00673542                                  1413000200274 
 2.1014E+06 1.32424   0.00677636                                  1413000200275 
 2.1257E+06 1.31512   0.00675585                                  1413000200276 
 2.1503E+06 1.32986   0.00681598                                  1413000200277 
 2.1752E+06 1.31808   0.00677812                                  1413000200278 
 2.2004E+06 1.32252   0.00679637                                  1413000200279 
 2.2259E+06 1.32836   0.00675562                                  1413000200280 
 2.2517E+06 1.32484   0.00678337                                  1413000200281 
 2.2778E+06 1.34242   0.00687474                                  1413000200282 
 2.3041E+06 1.32542   0.0068109                                   1413000200283 
 2.3308E+06 1.33534   0.00682494                                  1413000200284 
 2.3578E+06 1.33467   0.00681384                                  1413000200285 
 2.3851E+06 1.34402   0.00690859                                  1413000200286 
 2.4127E+06 1.3271    0.00683884                                  1413000200287 
 2.4407E+06 1.34736   0.00698374                                  1413000200288 
 2.4689E+06 1.34914   0.00698387                                  1413000200289 
 2.4975E+06 1.35279   0.00701012                                  1413000200290 
 2.5264E+06 1.3573    0.00705663                                  1413000200291 
 2.5557E+06 1.33128   0.00693674                                  1413000200292 
 2.5853E+06 1.35533   0.00704677                                  1413000200293 
 2.6152E+06 1.34201   0.00697161                                  1413000200294 
 2.6455E+06 1.3568    0.00705552                                  1413000200295 
 2.6761E+06 1.34979   0.00706584                                  1413000200296 
 2.7071E+06 1.35975   0.00710706                                  1413000200297 
 2.7385E+06 1.35409   0.00710404                                  1413000200298 
 2.7702E+06 1.35279   0.00708524                                  1413000200299 
 2.8023E+06 1.35735   0.00711098                                  1413000200300 
 2.8347E+06 1.36563   0.00719526                                  1413000200301 
 2.8675E+06 1.36019   0.00719208                                  1413000200302 
 2.9007E+06 1.36336   0.00719737                                  1413000200303 
 2.9343E+06 1.37309   0.00729497                                  1413000200304 
 2.9683E+06 1.37035   0.00725554                                  1413000200305 
 3.0027E+06 1.35018   0.00721809                                  1413000200306 
 3.0374E+06 1.36251   0.00726561                                  1413000200307 
 3.0726E+06 1.3612    0.00727235                                  1413000200308 
 3.1082E+06 1.36294   0.00731834                                  1413000200309 
 3.1442E+06 1.36642   0.00734529                                  1413000200310 
 3.1806E+06 1.36976   0.00738798                                  1413000200311 
 3.2174E+06 1.37416   0.00743653                                  1413000200312 
 3.2547E+06 1.36662   0.00741491                                  1413000200313 
 3.2924E+06 1.37899   0.00749722                                  1413000200314 
 3.3305E+06 1.37165   0.00748953                                  1413000200315 
 3.3691E+06 1.36904   0.00748342                                  1413000200316 
 3.4081E+06 1.38051   0.00754843                                  1413000200317 
 3.4475E+06 1.38687   0.00761398                                  1413000200318 
 3.4874E+06 1.37953   0.00759272                                  1413000200319 
 3.5278E+06 1.38253   0.00763717                                  1413000200320 
 3.5687E+06 1.37822   0.00764935                                  1413000200321 
 3.6100E+06 1.38542   0.00770383                                  1413000200322 
 3.6518E+06 1.38139   0.00769992                                  1413000200323 
 3.6941E+06 1.38583   0.00772317                                  1413000200324 
 3.7369E+06 1.37373   0.00769881                                  1413000200325 
 3.7801E+06 1.38749   0.00780289                                  1413000200326 
 3.8239E+06 1.38848   0.00780462                                  1413000200327 
 3.8682E+06 1.36738   0.00773569                                  1413000200328 
 3.9130E+06 1.37547   0.00777571                                  1413000200329 
 3.9583E+06 1.36883   0.00776322                                  1413000200330 
 4.0041E+06 1.37988   0.00786983                                  1413000200331 
 4.0505E+06 1.38302   0.0078892                                   1413000200332 
 4.0974E+06 1.39655   0.0079835                                   1413000200333 
 4.1448E+06 1.38491   0.00798518                                  1413000200334 
 4.1928E+06 1.39187   0.00802766                                  1413000200335 
 4.2414E+06 1.39184   0.00804845                                  1413000200336 
 4.2905E+06 1.38909   0.00807411                                  1413000200337 
 4.3402E+06 1.38103   0.00807065                                  1413000200338 
 4.3904E+06 1.3776    0.00806624                                  1413000200339 
 4.4413E+06 1.37133   0.00804826                                  1413000200340 
 4.4927E+06 1.3885    0.00819001                                  1413000200341 
 4.5447E+06 1.38256   0.00821499                                  1413000200342 
 4.5974E+06 1.37128   0.00817458                                  1413000200343 
 4.6506E+06 1.3938    0.00830786                                  1413000200344 
 4.7044E+06 1.36913   0.00820692                                  1413000200345 
 4.7589E+06 1.37327   0.008252                                    1413000200346 
 4.8140E+06 1.36663   0.00831249                                  1413000200347 
 4.8698E+06 1.3753    0.00833762                                  1413000200348 
 4.9262E+06 1.39596   0.00851542                                  1413000200349 
 4.9832E+06 1.38797   0.00853326                                  1413000200350 
 5.0409E+06 1.38786   0.00860363                                  1413000200351 
 5.0993E+06 1.37734   0.00862184                                  1413000200352 
 5.1583E+06 1.38279   0.0086819                                   1413000200353 
 5.2180E+06 1.39116   0.00875326                                  1413000200354 
 5.2785E+06 1.40085   0.00886697                                  1413000200355 
 5.3396E+06 1.39365   0.00886947                                  1413000200356 
 5.4014E+06 1.40314   0.00897876                                  1413000200357 
 5.4640E+06 1.39584   0.0089761                                   1413000200358 
 5.5272E+06 1.40519   0.0090692                                   1413000200359 
 5.5912E+06 1.42692   0.00925125                                  1413000200360 
 5.6560E+06 1.45476   0.00939428                                  1413000200361 
 5.7215E+06 1.43727   0.00931437                                  1413000200362 
 5.7877E+06 1.47581   0.00951765                                  1413000200363 
 5.8547E+06 1.48775   0.00957349                                  1413000200364 
 5.9225E+06 1.49844   0.00957716                                  1413000200365 
 5.9911E+06 1.49246   0.00943237                                  1413000200366 
 6.0605E+06 1.52833   0.0095885                                   1413000200367 
 6.1307E+06 1.51685   0.00944395                                  1413000200368 
 6.2017E+06 1.49718   0.00925654                                  1413000200369 
 6.2735E+06 1.47762   0.00905927                                  1413000200370 
 6.3461E+06 1.46162   0.00886783                                  1413000200371 
 6.4196E+06 1.43308   0.00865615                                  1413000200372 
 6.4939E+06 1.42045   0.00847271                                  1413000200373 
 6.5691E+06 1.41112   0.00836351                                  1413000200374 
 6.6452E+06 1.41388   0.00831482                                  1413000200375 
 6.7221E+06 1.39403   0.00818429                                  1413000200376 
 6.8000E+06 1.37596   0.0080385                                   1413000200377 
 6.8787E+06 1.3644    0.00792444                                  1413000200378 
 6.9584E+06 1.36343   0.00788863                                  1413000200379 
 7.0389E+06 1.3663    0.00790612                                  1413000200380 
 7.1205E+06 1.34938   0.00779784                                  1413000200381 
 7.2029E+06 1.34039   0.00776619                                  1413000200382 
 7.2863E+06 1.30985   0.00760576                                  1413000200383 
 7.3707E+06 1.32993   0.00771908                                  1413000200384 
 7.4560E+06 1.30284   0.00757922                                  1413000200385 
 7.5424E+06 1.29959   0.00758488                                  1413000200386 
 7.6297E+06 1.29418   0.00756596                                  1413000200387 
 7.7180E+06 1.28687   0.0075705                                   1413000200388 
 7.8074E+06 1.29781   0.00767375                                  1413000200389 
 7.8978E+06 1.28156   0.00759087                                  1413000200390 
 7.9893E+06 1.27337   0.0075943                                   1413000200391 
 8.0818E+06 1.27268   0.00762077                                  1413000200392 
 8.1754E+06 1.27593   0.00768437                                  1413000200393 
 8.2700E+06 1.26918   0.00769236                                  1413000200394 
 8.3658E+06 1.26525   0.00771266                                  1413000200395 
 8.4627E+06 1.26395   0.00776062                                  1413000200396 
 8.5607E+06 1.24917   0.00774182                                  1413000200397 
 8.6598E+06 1.25681   0.00785155                                  1413000200398 
 8.7601E+06 1.2393    0.00780424                                  1413000200399 
 8.8615E+06 1.26181   0.0079767                                   1413000200400 
 8.9641E+06 1.23326   0.00787571                                  1413000200401 
 9.0679E+06 1.24601   0.00801007                                  1413000200402 
 9.1729E+06 1.25635   0.00811463                                  1413000200403 
 9.2791E+06 1.23621   0.00807118                                  1413000200404 
 9.3866E+06 1.23299   0.00812595                                  1413000200405 
 9.4953E+06 1.24507   0.00825253                                  1413000200406 
 9.6052E+06 1.23146   0.00826344                                  1413000200407 
 9.7164E+06 1.21724   0.00824342                                  1413000200408 
 9.8290E+06 1.23847   0.0084141                                   1413000200409 
 9.9428E+06 1.2179    0.00839325                                  1413000200410 
 1.0058E+07 1.22677   0.00851792                                  1413000200411 
 1.0174E+07 1.23638   0.00866909                                  1413000200412 
 1.0292E+07 1.24025   0.00872398                                  1413000200413 
 1.0411E+07 1.25852   0.00894397                                  1413000200414 
 1.0532E+07 1.22685   0.00883117                                  1413000200415 
 1.0654E+07 1.22746   0.00888233                                  1413000200416 
 1.0777E+07 1.23003   0.00895207                                  1413000200417 
 1.0902E+07 1.22442   0.00900414                                  1413000200418 
 1.1028E+07 1.22664   0.00910346                                  1413000200419 
 1.1156E+07 1.21452   0.00907886                                  1413000200420 
 1.1285E+07 1.21855   0.00919477                                  1413000200421 
 1.1416E+07 1.21711   0.00926466                                  1413000200422 
 1.1548E+07 1.21659   0.0093218                                   1413000200423 
 1.1682E+07 1.21788   0.00935806                                  1413000200424 
 1.1817E+07 1.22504   0.0095276                                   1413000200425 
 1.1954E+07 1.2021    0.00944978                                  1413000200426 
 1.2092E+07 1.19006   0.00936965                                  1413000200427 
 1.2232E+07 1.18852   0.00941655                                  1413000200428 
 1.2374E+07 1.16159   0.00928213                                  1413000200429 
 1.2517E+07 1.15579   0.00924943                                  1413000200430 
 1.2662E+07 1.15713   0.00929324                                  1413000200431 
 1.2809E+07 1.1269    0.0091091                                   1413000200432 
 1.2957E+07 1.1081    0.00897388                                  1413000200433 
 1.3107E+07 1.0806    0.00879359                                  1413000200434 
 1.3259E+07 1.06938   0.00872147                                  1413000200435 
 1.3412E+07 1.07848   0.00882557                                  1413000200436 
 1.3568E+07 1.05334   0.00862014                                  1413000200437 
 1.3725E+07 1.03071   0.00848681                                  1413000200438 
 1.3884E+07 1.03292   0.00848967                                  1413000200439 
 1.4045E+07 1.04932   0.00858741                                  1413000200440 
 1.4207E+07 1.04415   0.00856388                                  1413000200441 
 1.4372E+07 1.02979   0.00846906                                  1413000200442 
 1.4538E+07 1.04282   0.0085834                                   1413000200443 
 1.4706E+07 1.04818   0.00861578                                  1413000200444 
 1.4877E+07 1.05268   0.008653                                    1413000200445 
 1.5049E+07 1.02405   0.0084612                                   1413000200446 
 1.5223E+07 1.05515   0.00868598                                  1413000200447 
 1.5400E+07 1.05079   0.00870895                                  1413000200448 
 1.5578E+07 1.04354   0.00865927                                  1413000200449 
 1.5758E+07 1.05333   0.00876689                                  1413000200450 
 1.5941E+07 1.05332   0.00881305                                  1413000200451 
 1.6125E+07 1.06888   0.00894929                                  1413000200452 
 1.6312E+07 1.06641   0.00894534                                  1413000200453 
 1.6501E+07 1.06222   0.00898502                                  1413000200454 
 1.6692E+07 1.07048   0.00909417                                  1413000200455 
 1.6885E+07 1.07997   0.00918809                                  1413000200456 
 1.7081E+07 1.0783    0.0091851                                   1413000200457 
 1.7279E+07 1.08016   0.009273                                    1413000200458 
 1.7479E+07 1.07659   0.00929172                                  1413000200459 
 1.7681E+07 1.07429   0.00929307                                  1413000200460 
 1.7886E+07 1.08994   0.00945877                                  1413000200461 
 1.8093E+07 1.10073   0.00957332                                  1413000200462 
 1.8302E+07 1.09023   0.00953822                                  1413000200463 
 1.8514E+07 1.0909    0.0095716                                   1413000200464 
 1.8729E+07 1.10578   0.00973616                                  1413000200465 
 1.8946E+07 1.09176   0.00968482                                  1413000200466 
 1.9165E+07 1.11387   0.00987551                                  1413000200467 
 1.9387E+07 1.09542   0.00972973                                  1413000200468 
 1.9611E+07 1.10068   0.00980761                                  1413000200469 
 1.9838E+07 1.10236   0.00985311                                  1413000200470 
 2.0068E+07 1.09734   0.00980684                                  1413000200471 
 2.0301E+07 1.09911   0.00982355                                  1413000200472 
 2.0536E+07 1.07101   0.00966173                                  1413000200473 
 2.0773E+07 1.09959   0.00985955                                  1413000200474 
 2.1014E+07 1.08515   0.00974244                                  1413000200475 
 2.1257E+07 1.06285   0.00959526                                  1413000200476 
 2.1503E+07 1.05956   0.00954402                                  1413000200477 
 2.1752E+07 1.07535   0.00964412                                  1413000200478 
 2.2004E+07 1.08717   0.00972908                                  1413000200479 
 2.2259E+07 1.04723   0.0094407                                   1413000200480 
 2.2517E+07 1.06374   0.00953878                                  1413000200481 
 2.2778E+07 1.06047   0.0095257                                   1413000200482 
 2.3041E+07 1.04714   0.00942114                                  1413000200483 
 2.3308E+07 1.04792   0.00942434                                  1413000200484 
 2.3578E+07 1.05391   0.00948988                                  1413000200485 
 2.3851E+07 1.05191   0.00944385                                  1413000200486 
 2.4127E+07 1.05085   0.00947729                                  1413000200487 
 2.4407E+07 1.04338   0.00941795                                  1413000200488 
 2.4689E+07 1.05043   0.00946392                                  1413000200489 
 2.4975E+07 1.03492   0.00937853                                  1413000200490 
 2.5264E+07 1.03985   0.00943962                                  1413000200491 
 2.5557E+07 1.07302   0.00969408                                  1413000200492 
 2.5853E+07 1.05437   0.00957016                                  1413000200493 
 2.6152E+07 1.04985   0.00952307                                  1413000200494 
 2.6455E+07 1.06192   0.00959984                                  1413000200495 
 2.6761E+07 1.03586   0.00950256                                  1413000200496 
 2.7071E+07 1.06547   0.00966951                                  1413000200497 
 2.7385E+07 1.06146   0.00969703                                  1413000200498 
 2.7702E+07 1.04896   0.00959599                                  1413000200499 
 2.8023E+07 1.0399    0.00952492                                  1413000200500 
 2.8347E+07 1.04688   0.00956949                                  1413000200501 
 2.8675E+07 1.02701   0.00944499                                  1413000200502 
 2.9007E+07 1.04051   0.00955496                                  1413000200503 
 2.9343E+07 1.0554    0.00965419                                  1413000200504 
 2.9683E+07 1.04561   0.00956393                                  1413000200505 
 3.0027E+07 1.05505   0.00965483                                  1413000200506 
 3.0374E+07 1.03229   0.009507                                    1413000200507 
 3.0726E+07 1.04752   0.00962888                                  1413000200508 
 3.1082E+07 1.02129   0.00943519                                  1413000200509 
 3.1442E+07 1.00417   0.00933452                                  1413000200510 
 3.1806E+07 1.05206   0.00968192                                  1413000200511 
 3.2174E+07 1.03921   0.00960426                                  1413000200512 
 3.2547E+07 1.05555   0.00972247                                  1413000200513 
 3.2924E+07 1.03823   0.0095868                                   1413000200514 
 3.3305E+07 1.04489   0.00964612                                  1413000200515 
 3.3691E+07 1.02998   0.00954499                                  1413000200516 
 3.4081E+07 1.0424    0.00965768                                  1413000200517 
 3.4475E+07 1.04794   0.00969899                                  1413000200518 
 3.4874E+07 1.04209   0.00966441                                  1413000200519 
 3.5278E+07 1.04776   0.00972759                                  1413000200520 
 3.5687E+07 1.0453    0.00974367                                  1413000200521 
 3.6100E+07 1.04349   0.00973087                                  1413000200522 
 3.6518E+07 1.03816   0.00969738                                  1413000200523 
 3.6941E+07 1.02694   0.00964846                                  1413000200524 
 3.7369E+07 1.04435   0.00980408                                  1413000200525 
 3.7801E+07 1.03483   0.00975527                                  1413000200526 
 3.8239E+07 1.04691   0.00983469                                  1413000200527 
 3.8682E+07 1.05894   0.00995134                                  1413000200528 
 3.9130E+07 1.02647   0.00973077                                  1413000200529 
 3.9583E+07 1.03369   0.00978282                                  1413000200530 
 4.0041E+07 1.04379   0.00985056                                  1413000200531 
 4.0505E+07 1.03959   0.00985061                                  1413000200532 
 4.0974E+07 1.04331   0.00990645                                  1413000200533 
 4.1448E+07 1.05103   0.00997837                                  1413000200534 
 4.1928E+07 1.06046   0.0100584                                   1413000200535 
 4.2414E+07 1.04428   0.00997079                                  1413000200536 
 4.2905E+07 1.04932   0.0100236                                   1413000200537 
 4.3402E+07 1.03733   0.00993866                                  1413000200538 
 4.3904E+07 1.03516   0.00994245                                  1413000200539 
 4.4413E+07 1.04515   0.0099937                                   1413000200540 
 4.4927E+07 1.03225   0.00996878                                  1413000200541 
 4.5447E+07 1.03704   0.0100403                                   1413000200542 
 4.5974E+07 1.03542   0.0100177                                   1413000200543 
 4.6506E+07 1.03334   0.0100159                                   1413000200544 
 4.7044E+07 1.05423   0.010227                                    1413000200545 
 4.7589E+07 1.05242   0.0102043                                   1413000200546 
 4.8140E+07 1.0425    0.0101286                                   1413000200547 
 4.8698E+07 1.03624   0.010152                                    1413000200548 
 4.9262E+07 1.04426   0.010265                                    1413000200549 
 4.9832E+07 1.03875   0.0102538                                   1413000200550 
 5.0409E+07 1.03934   0.0102687                                   1413000200551 
 5.0993E+07 1.05162   0.0103625                                   1413000200552 
 5.1583E+07 1.04897   0.0103758                                   1413000200553 
 5.2180E+07 1.0337    0.0103106                                   1413000200554 
 5.2785E+07 1.04988   0.0104094                                   1413000200555 
 5.3396E+07 1.05107   0.0104755                                   1413000200556 
 5.4014E+07 1.04125   0.0104638                                   1413000200557 
 5.4640E+07 1.06722   0.0106186                                   1413000200558 
 5.5272E+07 1.04994   0.0105392                                   1413000200559 
 5.5912E+07 1.03359   0.0104648                                   1413000200560 
 5.6560E+07 1.04524   0.010572                                    1413000200561 
 5.7215E+07 1.02592   0.0104291                                   1413000200562 
 5.7877E+07 1.05608   0.0107534                                   1413000200563 
 5.8547E+07 1.04865   0.0106634                                   1413000200564 
 5.9225E+07 1.04488   0.0107448                                   1413000200565 
 5.9911E+07 1.04346   0.0107602                                   1413000200566 
 6.0605E+07 1.03347   0.010666                                    1413000200567 
 6.1307E+07 1.04904   0.0108339                                   1413000200568 
 6.2017E+07 1.02889   0.010723                                    1413000200569 
 6.2735E+07 1.0416    0.0108877                                   1413000200570 
 6.3461E+07 1.04298   0.0109005                                   1413000200571 
 6.4196E+07 1.05645   0.0110902                                   1413000200572 
 6.4939E+07 1.03181   0.0109169                                   1413000200573 
 6.5691E+07 1.04035   0.011041                                    1413000200574 
 6.6452E+07 1.06727   0.0112502                                   1413000200575 
 6.7221E+07 1.05991   0.0113051                                   1413000200576 
 6.8000E+07 1.04448   0.0112116                                   1413000200577 
 6.8787E+07 1.05401   0.011311                                    1413000200578 
 6.9584E+07 1.02711   0.0110809                                   1413000200579 
 7.0389E+07 1.0485    0.0113704                                   1413000200580 
 7.1205E+07 1.02592   0.0112016                                   1413000200581 
 7.2029E+07 1.04401   0.0114492                                   1413000200582 
 7.2863E+07 1.05652   0.0115764                                   1413000200583 
 7.3707E+07 1.03602   0.011385                                    1413000200584 
 7.4560E+07 1.0592    0.011682                                    1413000200585 
 7.5424E+07 1.0218    0.0114461                                   1413000200586 
 7.6297E+07 1.05662   0.0118314                                   1413000200587 
 7.7180E+07 1.04264   0.0117844                                   1413000200588 
 7.8074E+07 1.05542   0.0119266                                   1413000200589 
 7.8978E+07 1.04715   0.0119337                                   1413000200590 
 7.9893E+07 1.03491   0.0118423                                   1413000200591 
 8.0818E+07 1.02496   0.01179                                     1413000200592 
 8.1754E+07 1.04663   0.0120997                                   1413000200593 
 8.2700E+07 1.02391   0.0119625                                   1413000200594 
 8.3658E+07 1.05226   0.0122636                                   1413000200595 
 8.4627E+07 1.04298   0.0122644                                   1413000200596 
 8.5607E+07 1.035     0.0123045                                   1413000200597 
 8.6598E+07 1.05724   0.012563                                    1413000200598 
 8.7601E+07 1.06573   0.0127545                                   1413000200599 
 8.8615E+07 1.0414    0.0125582                                   1413000200600 
 8.9641E+07 1.05873   0.0128233                                   1413000200601 
 9.0679E+07 1.03102   0.0126094                                   1413000200602 
 9.1729E+07 1.03639   0.0127398                                   1413000200603 
 9.2791E+07 1.04986   0.0129018                                   1413000200604 
 9.3866E+07 1.05248   0.0130705                                   1413000200605 
 9.4953E+07 1.04718   0.0130695                                   1413000200606 
 9.6052E+07 1.05203   0.0132594                                   1413000200607 
 9.7164E+07 1.04159   0.0132276                                   1413000200608 
 9.8290E+07 1.04792   0.0133823                                   1413000200609 
 9.9428E+07 1.06489   0.01365                                     1413000200610 
 1.0058E+08 1.05518   0.0136349                                   1413000200611 
 1.0174E+08 1.08381   0.0141247                                   1413000200612 
 1.0292E+08 1.0357    0.0136812                                   1413000200613 
 1.0411E+08 1.04194   0.0138624                                   1413000200614 
 1.0532E+08 1.0604    0.014192                                    1413000200615 
 1.0654E+08 1.05966   0.0142324                                   1413000200616 
 1.0777E+08 1.03491   0.0141215                                   1413000200617 
 1.0902E+08 1.02932   0.0141517                                   1413000200618 
 1.1028E+08 1.05848   0.0145608                                   1413000200619 
 1.1156E+08 1.03437   0.0144931                                   1413000200620 
 1.1285E+08 1.05079   0.0147207                                   1413000200621 
 1.1416E+08 1.07299   0.0151894                                   1413000200622 
 1.1548E+08 1.04593   0.014989                                    1413000200623 
 1.1682E+08 1.05855   0.0152412                                   1413000200624 
 1.1817E+08 1.03215   0.0151162                                   1413000200625 
 1.1954E+08 1.03979   0.0154204                                   1413000200626 
 1.2092E+08 1.02411   0.0153229                                   1413000200627 
 1.2232E+08 1.04881   0.0157209                                   1413000200628 
 1.2374E+08 1.04423   0.0159293                                   1413000200629 
 1.2517E+08 1.06623   0.0162578                                   1413000200630 
 1.2662E+08 1.05276   0.0163143                                   1413000200631 
 1.2809E+08 1.04726   0.0163911                                   1413000200632 
 1.2957E+08 1.04916   0.0166563                                   1413000200633 
 1.3107E+08 1.05276   0.0169423                                   1413000200634 
 1.3259E+08 1.03146   0.0167222                                   1413000200635 
 1.3412E+08 1.06872   0.0174782                                   1413000200636 
 1.3568E+08 1.05523   0.0173574                                   1413000200637 
 1.3725E+08 1.05774   0.0175956                                   1413000200638 
 1.3884E+08 1.00462   0.0170517                                   1413000200639 
 1.4045E+08 1.055     0.0178312                                   1413000200640 
 1.4207E+08 1.06008   0.0183736                                   1413000200641 
 1.4372E+08 1.05356   0.0184424                                   1413000200642 
 1.4538E+08 1.04222   0.0185383                                   1413000200643 
 1.4706E+08 1.08914   0.0195951                                   1413000200644 
 1.4877E+08 1.05127   0.0190467                                   1413000200645 
 1.5049E+08 1.04054   0.0191102                                   1413000200646 
 1.5223E+08 1.02087   0.0191511                                   1413000200647 
 1.5400E+08 1.09851   0.0204115                                   1413000200648 
 1.5578E+08 1.07243   0.0204414                                   1413000200649 
 1.5758E+08 1.05392   0.020463                                    1413000200650 
 1.5941E+08 1.04497   0.0206345                                   1413000200651 
 1.6125E+08 1.06022   0.0208863                                   1413000200652 
 1.6312E+08 1.01913   0.0205047                                   1413000200653 
 1.6501E+08 1.04222   0.0212593                                   1413000200654 
 1.6692E+08 1.04869   0.0217879                                   1413000200655 
 1.6885E+08 1.05371   0.0223772                                   1413000200656 
 1.7081E+08 1.0799    0.0230053                                   1413000200657 
 1.7279E+08 1.04948   0.0228061                                   1413000200658 
 1.7479E+08 1.0716    0.023481                                    1413000200659 
 1.7681E+08 1.03825   0.0231389                                   1413000200660 
 1.7886E+08 1.0602    0.024174                                    1413000200661 
 1.8093E+08 1.04249   0.0239431                                   1413000200662 
 1.8302E+08 1.08086   0.0254763                                   1413000200663 
 1.8514E+08 1.06032   0.0253046                                   1413000200664 
 1.8729E+08 1.09339   0.0269063                                   1413000200665 
 1.8946E+08 1.10401   0.0273884                                   1413000200666 
 1.9165E+08 1.03695   0.0261912                                   1413000200667 
 1.9387E+08 1.019     0.0264921                                   1413000200668 
 1.9611E+08 1.04133   0.027667                                    1413000200669 
 1.9838E+08 1.03323   0.0278159                                   1413000200670 
ENDDATA            662          0                                 1413000200671 
ENDSUBENT          670          0                                 1413000299999 
ENDENTRY             2          0                                 1413099999999 
