ENTRY            14170   20120815                             13851417000000001 
SUBENT        14170001   20120815                             13851417000100001 
BIB                 11         18                                 1417000100002 
TITLE      Determination of the level density of 29Si from        1417000100003 
           Ericson fluctuations                                   1417000100004 
AUTHOR     (V.Mishra,N.Boukharouba,S.M.Grimes,K.Doctor,           1417000100005 
           R.S.Pedroni,R.C.Haight)                                1417000100006 
INSTITUTE  (1USAOHO,1USALAS)                                      1417000100007 
REFERENCE  (J,PR/C,44,2419,1991)                                  1417000100008 
FACILITY   (LINAC,1USALAS) WNR facility at Los Alamos             1417000100009 
SAMPLE     Si sample of cylindrical shape with length of 8.9 cm   1417000100010 
METHOD     (TOF) Neutron energy was determined by time of         1417000100011 
           flight over a 90 m flight path. Total cross section    1417000100012 
           was determined from neutron flux attenuation by the    1417000100013 
           28Si sample                                            1417000100014 
INC-SOURCE (SPALL)                                                1417000100015 
CORRECTION  Dead time correction up to 6%                         1417000100016 
ERR-ANALYS (DATA-ERR) no information given                        1417000100017 
           Statistical errors were about 2.1% around 4MeV         1417000100018 
HISTORY    (20080401C)compiled by S.H.                            1417000100019 
           (20120815U) SD: Small correction in author's name.     1417000100020 
ENDBIB              18          0                                 1417000100021 
NOCOMMON             0          0                                 1417000100022 
ENDSUBENT           21          0                                 1417000199999 
SUBENT        14170002   20080401                             13481417000200001 
BIB                  2          2                                 1417000200002 
REACTION   (14-SI-28(N,TOT),,SIG)                                 1417000200003 
STATUS     (CURVE) data taken from fig. 1. of the reference       1417000200004 
ENDBIB               2          0                                 1417000200005 
NOCOMMON             0          0                                 1417000200006 
DATA                 3        669                                 1417000200007 
EN         DATA       DATA-ERR                                    1417000200008 
MEV        B          B                                           1417000200009 
  5.006E+00  2.269E+00                                            1417000200010 
  5.007E+00  2.116E+00                                            1417000200011 
  5.010E+00  2.224E+00                                            1417000200012 
  5.014E+00  2.282E+00                                            1417000200013 
  5.016E+00  2.309E+00                                            1417000200014 
  5.020E+00  2.367E+00                                            1417000200015 
  5.022E+00  1.932E+00                                            1417000200016 
  5.024E+00  1.908E+00                                            1417000200017 
  5.028E+00  1.816E+00                                            1417000200018 
  5.031E+00  1.558E+00                                            1417000200019 
  5.032E+00  1.616E+00                                            1417000200020 
  5.035E+00  1.459E+00                                            1417000200021 
  5.039E+00  1.507E+00                                            1417000200022 
  5.044E+00  1.602E+00                                            1417000200023 
  5.046E+00  1.507E+00                                            1417000200024 
  5.048E+00  1.575E+00                                            1417000200025 
  5.050E+00  1.646E+00                                            1417000200026 
  5.052E+00  1.558E+00                                            1417000200027 
  5.054E+00  1.660E+00                                            1417000200028 
  5.058E+00  1.388E+00                                            1417000200029 
  5.060E+00  1.646E+00                                            1417000200030 
  5.062E+00  1.962E+00                                            1417000200031 
  5.064E+00  2.126E+00                                            1417000200032 
  5.066E+00  2.150E+00                                            1417000200033 
  5.069E+00  2.286E+00                                            1417000200034 
  5.071E+00  2.445E+00                                            1417000200035 
  5.075E+00  2.473E+00                                            1417000200036 
  5.077E+00  2.534E+00                                            1417000200037 
  5.079E+00  2.398E+00                                            1417000200038 
  5.081E+00  2.326E+00                                            1417000200039 
  5.083E+00  2.258E+00                                            1417000200040 
  5.085E+00  1.837E+00                                            1417000200041 
  5.087E+00  2.017E+00                                            1417000200042 
  5.089E+00  1.952E+00                                            1417000200043 
  5.091E+00  1.911E+00                                            1417000200044 
  5.095E+00  1.785E+00                                            1417000200045 
  5.097E+00  1.894E+00                                            1417000200046 
  5.101E+00  1.758E+00                                            1417000200047 
  5.101E+00  2.143E+00                                            1417000200048 
  5.103E+00  1.785E+00                                            1417000200049 
  5.105E+00  2.126E+00                                            1417000200050 
  5.106E+00  2.177E+00                                            1417000200051 
  5.107E+00  2.262E+00                                            1417000200052 
  5.111E+00  2.381E+00                                            1417000200053 
  5.113E+00  2.279E+00                                            1417000200054 
  5.115E+00  2.360E+00                                            1417000200055 
  5.117E+00  2.194E+00                                            1417000200056 
  5.119E+00  2.177E+00                                            1417000200057 
  5.121E+00  2.143E+00                                            1417000200058 
  5.123E+00  1.945E+00                                            1417000200059 
  5.127E+00  1.646E+00                                            1417000200060 
  5.129E+00  1.697E+00                                            1417000200061 
  5.130E+00  2.204E+00                                            1417000200062 
  5.131E+00  1.966E+00                                            1417000200063 
  5.135E+00  1.874E+00                                            1417000200064 
  5.137E+00  2.200E+00                                            1417000200065 
  5.139E+00  2.245E+00                                            1417000200066 
  5.140E+00  2.336E+00                                            1417000200067 
  5.142E+00  2.575E+00                                            1417000200068 
  5.144E+00  2.377E+00                                            1417000200069 
  5.146E+00  2.853E+00                                            1417000200070 
  5.152E+00  2.833E+00                                            1417000200071 
  5.156E+00  2.704E+00                                            1417000200072 
  5.160E+00  2.265E+00                                            1417000200073 
  5.162E+00  2.064E+00                                            1417000200074 
  5.164E+00  2.408E+00                                            1417000200075 
  5.166E+00  2.108E+00                                            1417000200076 
  5.168E+00  2.000E+00                                            1417000200077 
  5.172E+00  1.952E+00                                            1417000200078 
  5.174E+00  1.813E+00                                            1417000200079 
  5.176E+00  1.642E+00                                            1417000200080 
  5.178E+00  2.061E+00                                            1417000200081 
  5.180E+00  1.928E+00                                            1417000200082 
  5.182E+00  1.945E+00                                            1417000200083 
  5.184E+00  2.010E+00                                            1417000200084 
  5.186E+00  1.850E+00                                            1417000200085 
  5.188E+00  1.928E+00                                            1417000200086 
  5.191E+00  2.231E+00                                            1417000200087 
  5.193E+00  2.193E+00                                            1417000200088 
  5.195E+00  2.578E+00                                            1417000200089 
  5.197E+00  2.367E+00                                            1417000200090 
  5.199E+00  2.557E+00                                            1417000200091 
  5.201E+00  2.534E+00                                            1417000200092 
  5.203E+00  2.615E+00                                            1417000200093 
  5.205E+00  2.234E+00                                            1417000200094 
  5.209E+00  2.360E+00                                            1417000200095 
  5.213E+00  2.044E+00                                            1417000200096 
  5.217E+00  1.744E+00                                            1417000200097 
  5.221E+00  1.884E+00                                            1417000200098 
  5.223E+00  1.619E+00                                            1417000200099 
  5.227E+00  1.993E+00                                            1417000200100 
  5.230E+00  1.653E+00                                            1417000200101 
  5.233E+00  1.802E+00                                            1417000200102 
  5.235E+00  1.993E+00                                            1417000200103 
  5.237E+00  2.037E+00                                            1417000200104 
  5.239E+00  2.268E+00                                            1417000200105 
  5.243E+00  1.758E+00                                            1417000200106 
  5.247E+00  1.789E+00  1.045E-01                                 1417000200107 
  5.251E+00  1.561E+00                                            1417000200108 
  5.253E+00  1.588E+00                                            1417000200109 
  5.261E+00  1.598E+00                                            1417000200110 
  5.263E+00  1.523E+00                                            1417000200111 
  5.265E+00  1.452E+00                                            1417000200112 
  5.267E+00  1.493E+00                                            1417000200113 
  5.269E+00  1.564E+00                                            1417000200114 
  5.271E+00  1.387E+00                                            1417000200115 
  5.274E+00  1.669E+00                                            1417000200116 
  5.276E+00  1.901E+00  1.187E-01                                 1417000200117 
  5.280E+00  1.479E+00                                            1417000200118 
  5.282E+00  1.703E+00                                            1417000200119 
  5.284E+00  1.510E+00                                            1417000200120 
  5.286E+00  1.346E+00                                            1417000200121 
  5.288E+00  1.588E+00                                            1417000200122 
  5.290E+00  1.285E+00                                            1417000200123 
  5.294E+00  1.370E+00                                            1417000200124 
  5.296E+00  1.435E+00                                            1417000200125 
  5.298E+00  2.193E+00                                            1417000200126 
  5.300E+00  1.996E+00                                            1417000200127 
  5.302E+00  2.139E+00                                            1417000200128 
  5.307E+00  2.285E+00                                            1417000200129 
  5.309E+00  2.088E+00                                            1417000200130 
  5.311E+00  2.057E+00                                            1417000200131 
  5.312E+00  1.867E+00                                            1417000200132 
  5.316E+00  1.751E+00                                            1417000200133 
  5.320E+00  1.513E+00                                            1417000200134 
  5.322E+00  1.612E+00                                            1417000200135 
  5.324E+00  1.499E+00                                            1417000200136 
  5.326E+00  1.282E+00                                            1417000200137 
  5.328E+00  1.411E+00                                            1417000200138 
  5.333E+00  1.669E+00                                            1417000200139 
  5.335E+00  1.577E+00                                            1417000200140 
  5.336E+00  1.356E+00                                            1417000200141 
  5.340E+00  1.312E+00                                            1417000200142 
  5.342E+00  1.183E+00                                            1417000200143 
  5.346E+00  1.125E+00                                            1417000200144 
  5.348E+00  1.142E+00                                            1417000200145 
  5.350E+00  1.037E+00                                            1417000200146 
  5.352E+00  9.312E-01                                            1417000200147 
  5.354E+00  1.050E+00                                            1417000200148 
  5.360E+00  9.550E-01                                            1417000200149 
  5.362E+00  1.190E+00                                            1417000200150 
  5.365E+00  1.292E+00                                            1417000200151 
  5.367E+00  1.115E+00                                            1417000200152 
  5.369E+00  1.526E+00                                            1417000200153 
  5.372E+00  1.639E+00                                            1417000200154 
  5.374E+00  1.455E+00                                            1417000200155 
  5.375E+00  1.611E+00                                            1417000200156 
  5.377E+00  1.176E+00                                            1417000200157 
  5.381E+00  1.414E+00                                            1417000200158 
  5.385E+00  1.251E+00  1.182E-01                                 1417000200159 
  5.387E+00  1.567E+00                                            1417000200160 
  5.390E+00  1.632E+00                                            1417000200161 
  5.392E+00  1.659E+00                                            1417000200162 
  5.393E+00  1.479E+00                                            1417000200163 
  5.398E+00  1.635E+00                                            1417000200164 
  5.400E+00  1.557E+00                                            1417000200165 
  5.402E+00  1.584E+00                                            1417000200166 
  5.405E+00  1.817E+00                                            1417000200167 
  5.408E+00  1.509E+00                                            1417000200168 
  5.412E+00  1.353E+00                                            1417000200169 
  5.414E+00  1.535E+00                                            1417000200170 
  5.419E+00  1.550E+00                                            1417000200171 
  5.420E+00  1.790E+00                                            1417000200172 
  5.422E+00  1.577E+00                                            1417000200173 
  5.425E+00  1.757E+00                                            1417000200174 
  5.426E+00  1.310E+00                                            1417000200175 
  5.432E+00  1.475E+00                                            1417000200176 
  5.433E+00  1.112E+00                                            1417000200177 
  5.435E+00  1.130E+00                                            1417000200178 
  5.437E+00  1.082E+00                                            1417000200179 
  5.440E+00  9.560E-01                                            1417000200180 
  5.442E+00  1.031E+00                                            1417000200181 
  5.445E+00  8.210E-01  1.006E-01                                 1417000200182 
  5.449E+00  9.650E-01                                            1417000200183 
  5.451E+00  1.127E+00                                            1417000200184 
  5.453E+00  1.202E+00                                            1417000200185 
  5.455E+00  1.232E+00                                            1417000200186 
  5.458E+00  1.166E+00                                            1417000200187 
  5.460E+00  1.637E+00                                            1417000200188 
  5.462E+00  1.370E+00                                            1417000200189 
  5.464E+00  1.493E+00                                            1417000200190 
  5.468E+00  1.679E+00                                            1417000200191 
  5.469E+00  1.460E+00                                            1417000200192 
  5.471E+00  1.652E+00                                            1417000200193 
  5.475E+00  1.751E+00                                            1417000200194 
  5.480E+00  1.472E+00                                            1417000200195 
  5.482E+00  1.610E+00                                            1417000200196 
  5.484E+00  1.817E+00                                            1417000200197 
  5.486E+00  1.979E+00                                            1417000200198 
  5.489E+00  1.727E+00                                            1417000200199 
  5.493E+00  1.508E+00                                            1417000200200 
  5.495E+00  1.706E+00                                            1417000200201 
  5.497E+00  1.802E+00                                            1417000200202 
  5.498E+00  2.024E+00                                            1417000200203 
  5.500E+00  2.057E+00                                            1417000200204 
  5.504E+00  2.186E+00                                            1417000200205 
  5.507E+00  1.964E+00                                            1417000200206 
  5.509E+00  2.189E+00                                            1417000200207 
  5.518E+00  1.982E+00                                            1417000200208 
  5.520E+00  1.922E+00                                            1417000200209 
  5.525E+00  1.685E+00                                            1417000200210 
  5.527E+00  1.664E+00                                            1417000200211 
  5.529E+00  1.718E+00                                            1417000200212 
  5.534E+00  1.547E+00                                            1417000200213 
  5.538E+00  1.610E+00                                            1417000200214 
  5.539E+00  1.583E+00                                            1417000200215 
  5.541E+00  1.514E+00                                            1417000200216 
  5.543E+00  1.754E+00                                            1417000200217 
  5.545E+00  1.751E+00                                            1417000200218 
  5.547E+00  2.030E+00                                            1417000200219 
  5.551E+00  2.063E+00                                            1417000200220 
  5.556E+00  1.769E+00                                            1417000200221 
  5.557E+00  1.805E+00                                            1417000200222 
  5.561E+00  1.733E+00                                            1417000200223 
  5.563E+00  1.847E+00                                            1417000200224 
  5.563E+00  1.967E+00                                            1417000200225 
  5.568E+00  1.835E+00                                            1417000200226 
  5.572E+00  2.048E+00                                            1417000200227 
  5.574E+00  1.943E+00                                            1417000200228 
  5.577E+00  1.763E+00                                            1417000200229 
  5.579E+00  1.859E+00                                            1417000200230 
  5.581E+00  1.649E+00                                            1417000200231 
  5.584E+00  1.541E+00  1.169E-01                                 1417000200232 
  5.588E+00  1.319E+00                                            1417000200233 
  5.590E+00  1.688E+00                                            1417000200234 
  5.593E+00  1.526E+00                                            1417000200235 
  5.597E+00  1.643E+00                                            1417000200236 
  5.598E+00  1.724E+00                                            1417000200237 
  5.600E+00  1.754E+00                                            1417000200238 
  5.604E+00  2.125E+00                                            1417000200239 
  5.608E+00  1.996E+00                                            1417000200240 
  5.610E+00  2.152E+00                                            1417000200241 
  5.613E+00  2.059E+00                                            1417000200242 
  5.616E+00  1.723E+00                                            1417000200243 
  5.618E+00  1.699E+00                                            1417000200244 
  5.620E+00  1.774E+00                                            1417000200245 
  5.622E+00  1.825E+00                                            1417000200246 
  5.626E+00  1.954E+00                                            1417000200247 
  5.629E+00  1.864E+00                                            1417000200248 
  5.631E+00  2.098E+00                                            1417000200249 
  5.633E+00  1.765E+00                                            1417000200250 
  5.635E+00  1.726E+00                                            1417000200251 
  5.640E+00  1.477E+00                                            1417000200252 
  5.641E+00  1.372E+00                                            1417000200253 
  5.643E+00  1.522E+00                                            1417000200254 
  5.645E+00  1.789E+00                                            1417000200255 
  5.649E+00  1.744E+00                                            1417000200256 
  5.651E+00  1.825E+00                                            1417000200257 
  5.654E+00  1.891E+00                                            1417000200258 
  5.660E+00  1.693E+00  1.170E-01                                 1417000200259 
  5.662E+00  1.867E+00                                            1417000200260 
  5.665E+00  1.807E+00                                            1417000200261 
  5.667E+00  1.900E+00                                            1417000200262 
  5.670E+00  1.741E+00                                            1417000200263 
  5.672E+00  1.726E+00                                            1417000200264 
  5.674E+00  1.993E+00                                            1417000200265 
  5.678E+00  2.068E+00                                            1417000200266 
  5.680E+00  1.969E+00                                            1417000200267 
  5.684E+00  2.092E+00                                            1417000200268 
  5.687E+00  2.074E+00                                            1417000200269 
  5.691E+00  2.263E+00                                            1417000200270 
  5.692E+00  2.119E+00                                            1417000200271 
  5.694E+00  2.491E+00                                            1417000200272 
  5.696E+00  2.413E+00                                            1417000200273 
  5.700E+00  2.710E+00                                            1417000200274 
  5.703E+00  2.728E+00                                            1417000200275 
  5.705E+00  2.677E+00                                            1417000200276 
  5.707E+00  2.446E+00                                            1417000200277 
  5.709E+00  2.509E+00                                            1417000200278 
  5.710E+00  2.251E+00                                            1417000200279 
  5.712E+00  2.446E+00                                            1417000200280 
  5.716E+00  2.353E+00                                            1417000200281 
  5.719E+00  2.314E+00                                            1417000200282 
  5.721E+00  2.416E+00                                            1417000200283 
  5.725E+00  2.395E+00                                            1417000200284 
  5.726E+00  2.236E+00                                            1417000200285 
  5.728E+00  2.152E+00                                            1417000200286 
  5.730E+00  2.407E+00                                            1417000200287 
  5.732E+00  2.182E+00                                            1417000200288 
  5.735E+00  2.098E+00                                            1417000200289 
  5.739E+00  2.039E+00                                            1417000200290 
  5.740E+00  2.071E+00                                            1417000200291 
  5.743E+00  2.088E+00                                            1417000200292 
  5.744E+00  2.235E+00  1.161E-01                                 1417000200293 
  5.747E+00  2.069E+00                                            1417000200294 
  5.749E+00  2.204E+00                                            1417000200295 
  5.751E+00  2.157E+00                                            1417000200296 
  5.754E+00  2.044E+00                                            1417000200297 
  5.758E+00  1.741E+00                                            1417000200298 
  5.761E+00  2.087E+00                                            1417000200299 
  5.762E+00  1.995E+00                                            1417000200300 
  5.765E+00  1.934E+00                                            1417000200301 
  5.769E+00  1.908E+00                                            1417000200302 
  5.771E+00  2.131E+00                                            1417000200303 
  5.773E+00  1.962E+00                                            1417000200304 
  5.776E+00  1.920E+00                                            1417000200305 
  5.783E+00  1.821E+00                                            1417000200306 
  5.784E+00  2.040E+00                                            1417000200307 
  5.787E+00  1.943E+00                                            1417000200308 
  5.790E+00  2.162E+00                                            1417000200309 
  5.792E+00  2.249E+00                                            1417000200310 
  5.794E+00  2.185E+00                                            1417000200311 
  5.798E+00  2.300E+00                                            1417000200312 
  5.800E+00  1.981E+00                                            1417000200313 
  5.802E+00  1.950E+00                                            1417000200314 
  5.804E+00  2.014E+00                                            1417000200315 
  5.808E+00  1.887E+00                                            1417000200316 
  5.810E+00  2.152E+00                                            1417000200317 
  5.813E+00  1.960E+00                                            1417000200318 
  5.816E+00  1.828E+00                                            1417000200319 
  5.818E+00  2.000E+00                                            1417000200320 
  5.821E+00  2.115E+00                                            1417000200321 
  5.824E+00  2.011E+00                                            1417000200322 
  5.826E+00  2.274E+00                                            1417000200323 
  5.828E+00  2.030E+00                                            1417000200324 
  5.831E+00  2.155E+00                                            1417000200325 
  5.834E+00  1.969E+00                                            1417000200326 
  5.840E+00  1.793E+00                                            1417000200327 
  5.843E+00  2.009E+00                                            1417000200328 
  5.848E+00  2.194E+00                                            1417000200329 
  5.849E+00  2.443E+00                                            1417000200330 
  5.852E+00  2.523E+00                                            1417000200331 
  5.858E+00  2.712E+00  1.269E-01                                 1417000200332 
  5.861E+00  2.612E+00                                            1417000200333 
  5.863E+00  2.152E+00                                            1417000200334 
  5.867E+00  1.856E+00                                            1417000200335 
  5.870E+00  1.802E+00                                            1417000200336 
  5.872E+00  1.671E+00                                            1417000200337 
  5.875E+00  1.701E+00                                            1417000200338 
  5.877E+00  1.556E+00                                            1417000200339 
  5.881E+00  1.382E+00                                            1417000200340 
  5.884E+00  1.685E+00                                            1417000200341 
  5.886E+00  1.755E+00                                            1417000200342 
  5.888E+00  1.802E+00                                            1417000200343 
  5.892E+00  1.748E+00                                            1417000200344 
  5.894E+00  2.009E+00                                            1417000200345 
  5.898E+00  1.488E+00                                            1417000200346 
  5.901E+00  1.368E+00                                            1417000200347 
  5.906E+00  1.603E+00                                            1417000200348 
  5.908E+00  1.523E+00                                            1417000200349 
  5.912E+00  1.614E+00                                            1417000200350 
  5.915E+00  1.746E+00                                            1417000200351 
  5.917E+00  1.342E+00                                            1417000200352 
  5.919E+00  1.873E+00                                            1417000200353 
  5.922E+00  1.513E+00                                            1417000200354 
  5.925E+00  1.734E+00                                            1417000200355 
  5.928E+00  1.936E+00                                            1417000200356 
  5.930E+00  1.600E+00                                            1417000200357 
  5.932E+00  1.769E+00                                            1417000200358 
  5.936E+00  1.755E+00                                            1417000200359 
  5.939E+00  1.661E+00                                            1417000200360 
  5.939E+00  1.722E+00                                            1417000200361 
  5.943E+00  1.788E+00                                            1417000200362 
  5.944E+00  1.509E+00                                            1417000200363 
  5.947E+00  1.556E+00                                            1417000200364 
  5.951E+00  1.494E+00                                            1417000200365 
  5.954E+00  1.431E+00                                            1417000200366 
  5.958E+00  1.222E+00                                            1417000200367 
  5.961E+00  1.473E+00                                            1417000200368 
  5.963E+00  1.588E+00                                            1417000200369 
  5.966E+00  1.750E+00                                            1417000200370 
  5.971E+00  1.734E+00                                            1417000200371 
  5.973E+00  1.757E+00                                            1417000200372 
  5.977E+00  1.673E+00                                            1417000200373 
  5.979E+00  1.656E+00                                            1417000200374 
  5.980E+00  1.943E+00                                            1417000200375 
  5.985E+00  1.595E+00                                            1417000200376 
  5.988E+00  1.708E+00                                            1417000200377 
  5.991E+00  1.551E+00                                            1417000200378 
  5.994E+00  1.682E+00                                            1417000200379 
  5.998E+00  1.490E+00                                            1417000200380 
  6.001E+00  1.647E+00                                            1417000200381 
  6.005E+00  1.607E+00                                            1417000200382 
  6.007E+00  1.497E+00                                            1417000200383 
  6.011E+00  1.903E+00                                            1417000200384 
  6.012E+00  1.933E+00                                            1417000200385 
  6.013E+00  1.675E+00                                            1417000200386 
  6.016E+00  1.760E+00                                            1417000200387 
  6.019E+00  2.041E+00                                            1417000200388 
  6.022E+00  2.133E+00                                            1417000200389 
  6.025E+00  2.168E+00                                            1417000200390 
  6.029E+00  1.785E+00                                            1417000200391 
  6.032E+00  1.741E+00                                            1417000200392 
  6.033E+00  2.105E+00                                            1417000200393 
  6.036E+00  2.037E+00                                            1417000200394 
  6.039E+00  2.297E+00                                            1417000200395 
  6.040E+00  2.065E+00                                            1417000200396 
  6.045E+00  1.841E+00                                            1417000200397 
  6.048E+00  1.870E+00                                            1417000200398 
  6.052E+00  1.971E+00                                            1417000200399 
  6.056E+00  2.380E+00                                            1417000200400 
  6.057E+00  2.222E+00                                            1417000200401 
  6.062E+00  2.184E+00                                            1417000200402 
  6.064E+00  1.769E+00                                            1417000200403 
  6.067E+00  1.838E+00                                            1417000200404 
  6.071E+00  1.774E+00                                            1417000200405 
  6.074E+00  1.665E+00                                            1417000200406 
  6.076E+00  1.616E+00                                            1417000200407 
  6.079E+00  1.873E+00                                            1417000200408 
  6.082E+00  1.823E+00                                            1417000200409 
  6.084E+00  1.772E+00                                            1417000200410 
  6.086E+00  2.060E+00                                            1417000200411 
  6.090E+00  1.870E+00                                            1417000200412 
  6.094E+00  1.907E+00                                            1417000200413 
  6.096E+00  1.705E+00                                            1417000200414 
  6.098E+00  1.919E+00                                            1417000200415 
  6.102E+00  1.619E+00                                            1417000200416 
  6.105E+00  1.633E+00                                            1417000200417 
  6.108E+00  1.423E+00                                            1417000200418 
  6.112E+00  1.250E+00                                            1417000200419 
  6.114E+00  1.238E+00                                            1417000200420 
  6.118E+00  1.076E+00                                            1417000200421 
  6.122E+00  1.448E+00                                            1417000200422 
  6.125E+00  1.140E+00                                            1417000200423 
  6.131E+00  1.215E+00                                            1417000200424 
  6.134E+00  1.071E+00                                            1417000200425 
  6.137E+00  1.045E+00                                            1417000200426 
  6.141E+00  1.301E+00                                            1417000200427 
  6.143E+00  1.420E+00                                            1417000200428 
  6.150E+00  1.376E+00                                            1417000200429 
  6.153E+00  1.448E+00                                            1417000200430 
  6.155E+00  1.682E+00                                            1417000200431 
  6.158E+00  1.379E+00                                            1417000200432 
  6.161E+00  1.887E+00                                            1417000200433 
  6.162E+00  1.792E+00                                            1417000200434 
  6.164E+00  1.794E+00                                            1417000200435 
  6.166E+00  1.835E+00                                            1417000200436 
  6.169E+00  1.673E+00                                            1417000200437 
  6.173E+00  1.780E+00                                            1417000200438 
  6.176E+00  1.535E+00  1.154E-01                                 1417000200439 
  6.178E+00  1.771E+00                                            1417000200440 
  6.181E+00  1.474E+00                                            1417000200441 
  6.185E+00  1.817E+00                                            1417000200442 
  6.188E+00  1.616E+00                                            1417000200443 
  6.190E+00  1.800E+00                                            1417000200444 
  6.193E+00  1.826E+00                                            1417000200445 
  6.196E+00  1.411E+00                                            1417000200446 
  6.198E+00  1.682E+00                                            1417000200447 
  6.205E+00  1.636E+00                                            1417000200448 
  6.209E+00  1.489E+00                                            1417000200449 
  6.210E+00  1.616E+00                                            1417000200450 
  6.212E+00  1.693E+00                                            1417000200451 
  6.219E+00  1.849E+00                                            1417000200452 
  6.221E+00  2.250E+00                                            1417000200453 
  6.224E+00  1.889E+00                                            1417000200454 
  6.228E+00  2.094E+00                                            1417000200455 
  6.230E+00  2.224E+00                                            1417000200456 
  6.233E+00  2.305E+00                                            1417000200457 
  6.236E+00  2.132E+00                                            1417000200458 
  6.238E+00  1.996E+00                                            1417000200459 
  6.242E+00  2.328E+00                                            1417000200460 
  6.246E+00  2.610E+00                                            1417000200461 
  6.249E+00  2.521E+00                                            1417000200462 
  6.252E+00  2.472E+00                                            1417000200463 
  6.254E+00  2.305E+00                                            1417000200464 
  6.257E+00  2.293E+00                                            1417000200465 
  6.262E+00  2.483E+00                                            1417000200466 
  6.268E+00  2.668E+00                                            1417000200467 
  6.273E+00  2.472E+00                                            1417000200468 
  6.276E+00  2.515E+00                                            1417000200469 
  6.278E+00  2.368E+00                                            1417000200470 
  6.284E+00  2.452E+00                                            1417000200471 
  6.287E+00  2.830E+00  1.759E-01                                 1417000200472 
  6.289E+00  2.501E+00                                            1417000200473 
  6.292E+00  2.423E+00                                            1417000200474 
  6.296E+00  2.749E+00                                            1417000200475 
  6.297E+00  2.429E+00                                            1417000200476 
  6.302E+00  1.768E+00                                            1417000200477 
  6.304E+00  2.054E+00                                            1417000200478 
  6.307E+00  1.768E+00                                            1417000200479 
  6.310E+00  1.999E+00                                            1417000200480 
  6.312E+00  1.736E+00                                            1417000200481 
  6.317E+00  1.526E+00                                            1417000200482 
  6.321E+00  1.517E+00                                            1417000200483 
  6.324E+00  1.607E+00                                            1417000200484 
  6.326E+00  1.849E+00                                            1417000200485 
  6.329E+00  1.584E+00                                            1417000200486 
  6.333E+00  1.633E+00                                            1417000200487 
  6.335E+00  1.708E+00                                            1417000200488 
  6.338E+00  1.607E+00                                            1417000200489 
  6.340E+00  1.644E+00                                            1417000200490 
  6.345E+00  1.814E+00                                            1417000200491 
  6.347E+00  1.679E+00                                            1417000200492 
  6.350E+00  1.621E+00                                            1417000200493 
  6.352E+00  1.823E+00                                            1417000200494 
  6.354E+00  2.088E+00                                            1417000200495 
  6.358E+00  2.143E+00  1.298E-01                                 1417000200496 
  6.362E+00  1.759E+00                                            1417000200497 
  6.365E+00  1.468E+00                                            1417000200498 
  6.367E+00  1.569E+00                                            1417000200499 
  6.371E+00  1.630E+00                                            1417000200500 
  6.374E+00  1.889E+00                                            1417000200501 
  6.378E+00  1.797E+00                                            1417000200502 
  6.381E+00  1.820E+00                                            1417000200503 
  6.384E+00  1.710E+00                                            1417000200504 
  6.387E+00  1.587E+00                                            1417000200505 
  6.391E+00  1.667E+00                                            1417000200506 
  6.392E+00  1.497E+00                                            1417000200507 
  6.397E+00  1.610E+00                                            1417000200508 
  6.398E+00  1.600E+00                                            1417000200509 
  6.403E+00  1.650E+00                                            1417000200510 
  6.405E+00  1.533E+00                                            1417000200511 
  6.410E+00  1.538E+00                                            1417000200512 
  6.412E+00  1.577E+00                                            1417000200513 
  6.415E+00  1.759E+00                                            1417000200514 
  6.419E+00  1.722E+00                                            1417000200515 
  6.422E+00  1.884E+00                                            1417000200516 
  6.426E+00  1.848E+00                                            1417000200517 
  6.430E+00  2.028E+00                                            1417000200518 
  6.434E+00  2.007E+00                                            1417000200519 
  6.435E+00  2.123E+00                                            1417000200520 
  6.441E+00  1.820E+00  1.047E-01                                 1417000200521 
  6.446E+00  1.747E+00                                            1417000200522 
  6.450E+00  1.467E+00                                            1417000200523 
  6.452E+00  1.583E+00                                            1417000200524 
  6.455E+00  1.412E+00                                            1417000200525 
  6.459E+00  1.608E+00                                            1417000200526 
  6.462E+00  1.376E+00                                            1417000200527 
  6.465E+00  1.244E+00                                            1417000200528 
  6.467E+00  1.187E+00                                            1417000200529 
  6.469E+00  1.406E+00                                            1417000200530 
  6.472E+00  1.412E+00                                            1417000200531 
  6.474E+00  1.132E+00                                            1417000200532 
  6.480E+00  1.339E+00                                            1417000200533 
  6.482E+00  1.385E+00                                            1417000200534 
  6.486E+00  1.394E+00                                            1417000200535 
  6.488E+00  1.246E+00                                            1417000200536 
  6.490E+00  1.137E+00                                            1417000200537 
  6.494E+00  1.116E+00                                            1417000200538 
  6.498E+00  1.462E+00                                            1417000200539 
  6.503E+00  1.446E+00                                            1417000200540 
  6.504E+00  1.606E+00                                            1417000200541 
  6.509E+00  1.740E+00                                            1417000200542 
  6.514E+00  1.383E+00                                            1417000200543 
  6.517E+00  1.465E+00                                            1417000200544 
  6.521E+00  1.437E+00                                            1417000200545 
  6.524E+00  1.497E+00                                            1417000200546 
  6.527E+00  1.437E+00                                            1417000200547 
  6.529E+00  1.538E+00                                            1417000200548 
  6.533E+00  1.592E+00                                            1417000200549 
  6.534E+00  1.387E+00                                            1417000200550 
  6.541E+00  1.476E+00                                            1417000200551 
  6.542E+00  1.214E+00                                            1417000200552 
  6.546E+00  1.059E+00                                            1417000200553 
  6.549E+00  1.184E+00                                            1417000200554 
  6.551E+00  1.364E+00                                            1417000200555 
  6.555E+00  1.200E+00                                            1417000200556 
  6.557E+00  1.089E+00                                            1417000200557 
  6.561E+00  1.043E+00                                            1417000200558 
  6.565E+00  1.070E+00                                            1417000200559 
  6.568E+00  1.312E+00                                            1417000200560 
  6.574E+00  1.218E+00                                            1417000200561 
  6.577E+00  1.041E+00                                            1417000200562 
  6.579E+00  1.244E+00                                            1417000200563 
  6.583E+00  9.109E-01                                            1417000200564 
  6.586E+00  9.314E-01                                            1417000200565 
  6.588E+00  1.025E+00                                            1417000200566 
  6.591E+00  9.906E-01                                            1417000200567 
  6.594E+00  1.057E+00                                            1417000200568 
  6.598E+00  1.130E+00                                            1417000200569 
  6.602E+00  8.356E-01  9.523E-02                                 1417000200570 
  6.606E+00  1.091E+00                                            1417000200571 
  6.609E+00  1.141E+00                                            1417000200572 
  6.613E+00  1.095E+00                                            1417000200573 
  6.616E+00  1.476E+00                                            1417000200574 
  6.619E+00  1.387E+00                                            1417000200575 
  6.622E+00  1.574E+00                                            1417000200576 
  6.624E+00  1.455E+00                                            1417000200577 
  6.628E+00  1.569E+00                                            1417000200578 
  6.631E+00  1.373E+00                                            1417000200579 
  6.633E+00  1.700E+00                                            1417000200580 
  6.637E+00  1.574E+00                                            1417000200581 
  6.641E+00  1.586E+00                                            1417000200582 
  6.646E+00  1.727E+00                                            1417000200583 
  6.651E+00  1.778E+00                                            1417000200584 
  6.655E+00  1.682E+00                                            1417000200585 
  6.657E+00  1.739E+00                                            1417000200586 
  6.661E+00  1.850E+00                                            1417000200587 
  6.663E+00  1.973E+00                                            1417000200588 
  6.666E+00  1.991E+00                                            1417000200589 
  6.671E+00  1.742E+00                                            1417000200590 
  6.675E+00  2.084E+00                                            1417000200591 
  6.677E+00  2.033E+00                                            1417000200592 
  6.680E+00  1.967E+00                                            1417000200593 
  6.688E+00  2.042E+00                                            1417000200594 
  6.693E+00  2.249E+00  1.140E-01                                 1417000200595 
  6.697E+00  2.219E+00                                            1417000200596 
  6.700E+00  1.967E+00                                            1417000200597 
  6.704E+00  2.318E+00                                            1417000200598 
  6.707E+00  1.931E+00                                            1417000200599 
  6.711E+00  1.967E+00                                            1417000200600 
  6.714E+00  1.856E+00                                            1417000200601 
  6.718E+00  1.775E+00                                            1417000200602 
  6.722E+00  1.889E+00                                            1417000200603 
  6.724E+00  1.748E+00                                            1417000200604 
  6.727E+00  1.646E+00                                            1417000200605 
  6.730E+00  1.589E+00                                            1417000200606 
  6.733E+00  1.901E+00                                            1417000200607 
  6.736E+00  1.922E+00                                            1417000200608 
  6.741E+00  1.946E+00                                            1417000200609 
  6.743E+00  1.991E+00                                            1417000200610 
  6.747E+00  1.826E+00                                            1417000200611 
  6.752E+00  1.673E+00                                            1417000200612 
  6.755E+00  1.619E+00                                            1417000200613 
  6.757E+00  1.655E+00                                            1417000200614 
  6.761E+00  1.820E+00                                            1417000200615 
  6.763E+00  1.739E+00                                            1417000200616 
  6.766E+00  1.964E+00                                            1417000200617 
  6.768E+00  1.739E+00                                            1417000200618 
  6.770E+00  1.853E+00                                            1417000200619 
  6.774E+00  2.063E+00                                            1417000200620 
  6.781E+00  1.922E+00                                            1417000200621 
  6.784E+00  1.832E+00                                            1417000200622 
  6.789E+00  1.580E+00                                            1417000200623 
  6.795E+00  1.637E+00                                            1417000200624 
  6.798E+00  1.523E+00                                            1417000200625 
  6.802E+00  1.724E+00                                            1417000200626 
  6.806E+00  1.748E+00                                            1417000200627 
  6.809E+00  1.373E+00                                            1417000200628 
  6.813E+00  1.436E+00                                            1417000200629 
  6.816E+00  1.586E+00                                            1417000200630 
  6.822E+00  1.577E+00                                            1417000200631 
  6.827E+00  1.763E+00                                            1417000200632 
  6.829E+00  1.670E+00                                            1417000200633 
  6.836E+00  1.532E+00  9.599E-02                                 1417000200634 
  6.838E+00  1.322E+00  8.399E-02                                 1417000200635 
  6.843E+00  1.454E+00                                            1417000200636 
  6.847E+00  1.370E+00                                            1417000200637 
  6.851E+00  1.706E+00                                            1417000200638 
  6.858E+00  1.871E+00                                            1417000200639 
  6.860E+00  1.898E+00                                            1417000200640 
  6.863E+00  1.730E+00                                            1417000200641 
  6.867E+00  1.586E+00                                            1417000200642 
  6.870E+00  1.571E+00                                            1417000200643 
  6.872E+00  1.676E+00                                            1417000200644 
  6.877E+00  1.595E+00                                            1417000200645 
  6.879E+00  1.751E+00                                            1417000200646 
  6.885E+00  1.805E+00                                            1417000200647 
  6.888E+00  1.784E+00                                            1417000200648 
  6.890E+00  1.685E+00                                            1417000200649 
  6.892E+00  1.658E+00                                            1417000200650 
  6.899E+00  1.682E+00                                            1417000200651 
  6.902E+00  1.487E+00                                            1417000200652 
  6.904E+00  1.520E+00                                            1417000200653 
  6.911E+00  1.439E+00                                            1417000200654 
  6.913E+00  1.496E+00                                            1417000200655 
  6.918E+00  1.442E+00                                            1417000200656 
  6.920E+00  1.544E+00                                            1417000200657 
  6.924E+00  1.508E+00                                            1417000200658 
  6.929E+00  1.319E+00                                            1417000200659 
  6.935E+00  1.331E+00                                            1417000200660 
  6.936E+00  1.478E+00                                            1417000200661 
  6.940E+00  1.310E+00                                            1417000200662 
  6.943E+00  1.193E+00                                            1417000200663 
  6.949E+00  1.298E+00                                            1417000200664 
  6.951E+00  1.456E+00                                            1417000200665 
  6.953E+00  1.322E+00                                            1417000200666 
  6.956E+00  1.597E+00                                            1417000200667 
  6.960E+00  1.528E+00                                            1417000200668 
  6.963E+00  1.681E+00                                            1417000200669 
  6.969E+00  1.789E+00                                            1417000200670 
  6.973E+00  1.885E+00                                            1417000200671 
  6.976E+00  1.762E+00                                            1417000200672 
  6.980E+00  1.795E+00                                            1417000200673 
  6.983E+00  1.837E+00                                            1417000200674 
  6.985E+00  1.609E+00                                            1417000200675 
  6.988E+00  1.456E+00                                            1417000200676 
  6.990E+00  1.543E+00                                            1417000200677 
  6.996E+00  1.582E+00                                            1417000200678 
ENDDATA            671          0                                 1417000200679 
ENDSUBENT          678          0                                 1417000299999 
ENDENTRY             2          0                                 1417099999999 
