ENTRY            14184   20111031                             13761418400000001 
SUBENT        14184001   20111031                             13761418400100001 
BIB                 11         19                                 1418400100002 
TITLE      Level densities of 28Al,29Si and 41Ca inferred from    1418400100003 
           fluctuation measurement                                1418400100004 
AUTHOR     (W.Abfalterer,R.W.Finlay,S.M.Grimes,V.Mishra)          1418400100005 
INSTITUTE  (1USAOSU)                                              1418400100006 
REFERENCE  (J,PR/C,47,1033,1993)                                  1418400100007 
FACILITY   (LINAC,1USALAS) The data were acquired at the WNR      1418400100008 
           facility at the LANL. A beam of 800 MeV protons        1418400100009 
           produced neutrons over the range from keV to nearly    1418400100010 
           800 MeV by spallation reaction.                        1418400100011 
METHOD     (TRN)                                                  1418400100012 
CORRECTION Analytic dead time correction for lower probability    1418400100013 
           to detect low energy neutrons. Correction factor was   1418400100014 
           up to 1.7.                                             1418400100015 
INC-SOURCE (SPALL) neutrons produced by spallation reaction of    1418400100016 
                  800 MeV protons on tungsten target              1418400100017 
ERR-ANALYS No information on uncertainty                          1418400100018 
HISTORY    (20110922C) Compiled by S.H.                           1418400100019 
STATUS     (COREL,13569001) Based on the same experiment as entry 1418400100020 
            13569, but with full experimental energy resolution   1418400100021 
ENDBIB              19          0                                 1418400100022 
NOCOMMON             0          0                                 1418400100023 
ENDSUBENT           22          0                                 1418400199999 
SUBENT        14184002   20080829                             13761418400200001 
BIB                  2          2                                 1418400200002 
REACTION   (13-AL-27(N,TOT),,SIG)                                 1418400200003 
STATUS     (CURVE) Data taken from Fig.1 of the reference         1418400200004 
ENDBIB               2          0                                 1418400200005 
NOCOMMON             0          0                                 1418400200006 
DATA                 2        514                                 1418400200007 
EN         DATA                                                   1418400200008 
MEV        B                                                      1418400200009 
  5.003E+00  2.569E+00                                            1418400200010 
  5.005E+00  2.585E+00                                            1418400200011 
  5.007E+00  2.529E+00                                            1418400200012 
  5.011E+00  2.480E+00                                            1418400200013 
  5.015E+00  2.450E+00                                            1418400200014 
  5.015E+00  2.451E+00                                            1418400200015 
  5.015E+00  2.410E+00                                            1418400200016 
  5.018E+00  2.424E+00                                            1418400200017 
  5.020E+00  2.384E+00                                            1418400200018 
  5.023E+00  2.367E+00                                            1418400200019 
  5.024E+00  2.347E+00                                            1418400200020 
  5.028E+00  2.353E+00                                            1418400200021 
  5.032E+00  2.380E+00                                            1418400200022 
  5.034E+00  2.363E+00                                            1418400200023 
  5.038E+00  2.409E+00                                            1418400200024 
  5.045E+00  2.373E+00                                            1418400200025 
  5.052E+00  2.404E+00                                            1418400200026 
  5.052E+00  2.432E+00                                            1418400200027 
  5.056E+00  2.391E+00                                            1418400200028 
  5.059E+00  2.334E+00                                            1418400200029 
  5.066E+00  2.332E+00                                            1418400200030 
  5.069E+00  2.323E+00                                            1418400200031 
  5.071E+00  2.315E+00                                            1418400200032 
  5.073E+00  2.278E+00                                            1418400200033 
  5.074E+00  2.265E+00                                            1418400200034 
  5.078E+00  2.251E+00                                            1418400200035 
  5.089E+00  2.257E+00                                            1418400200036 
  5.090E+00  2.305E+00                                            1418400200037 
  5.092E+00  2.281E+00                                            1418400200038 
  5.096E+00  2.298E+00                                            1418400200039 
  5.098E+00  2.275E+00                                            1418400200040 
  5.100E+00  2.286E+00                                            1418400200041 
  5.105E+00  2.346E+00                                            1418400200042 
  5.109E+00  2.365E+00                                            1418400200043 
  5.114E+00  2.327E+00                                            1418400200044 
  5.116E+00  2.311E+00                                            1418400200045 
  5.122E+00  2.290E+00                                            1418400200046 
  5.125E+00  2.301E+00                                            1418400200047 
  5.130E+00  2.276E+00                                            1418400200048 
  5.132E+00  2.266E+00                                            1418400200049 
  5.138E+00  2.338E+00                                            1418400200050 
  5.140E+00  2.299E+00                                            1418400200051 
  5.144E+00  2.263E+00                                            1418400200052 
  5.145E+00  2.223E+00                                            1418400200053 
  5.149E+00  2.289E+00                                            1418400200054 
  5.151E+00  2.238E+00                                            1418400200055 
  5.154E+00  2.198E+00                                            1418400200056 
  5.156E+00  2.256E+00                                            1418400200057 
  5.160E+00  2.270E+00                                            1418400200058 
  5.162E+00  2.235E+00                                            1418400200059 
  5.171E+00  2.277E+00                                            1418400200060 
  5.172E+00  2.308E+00                                            1418400200061 
  5.176E+00  2.300E+00                                            1418400200062 
  5.179E+00  2.265E+00                                            1418400200063 
  5.182E+00  2.251E+00                                            1418400200064 
  5.186E+00  2.218E+00                                            1418400200065 
  5.191E+00  2.195E+00                                            1418400200066 
  5.195E+00  2.141E+00                                            1418400200067 
  5.199E+00  2.089E+00                                            1418400200068 
  5.200E+00  2.097E+00                                            1418400200069 
  5.203E+00  1.998E+00                                            1418400200070 
  5.207E+00  1.984E+00                                            1418400200071 
  5.211E+00  1.942E+00                                            1418400200072 
  5.213E+00  1.908E+00                                            1418400200073 
  5.213E+00  1.932E+00                                            1418400200074 
  5.217E+00  1.918E+00                                            1418400200075 
  5.221E+00  1.893E+00                                            1418400200076 
  5.223E+00  1.906E+00                                            1418400200077 
  5.224E+00  1.955E+00                                            1418400200078 
  5.229E+00  1.960E+00                                            1418400200079 
  5.230E+00  1.939E+00                                            1418400200080 
  5.234E+00  1.987E+00                                            1418400200081 
  5.237E+00  2.008E+00                                            1418400200082 
  5.239E+00  2.055E+00                                            1418400200083 
  5.240E+00  2.081E+00                                            1418400200084 
  5.245E+00  2.090E+00                                            1418400200085 
  5.246E+00  2.101E+00                                            1418400200086 
  5.255E+00  2.111E+00                                            1418400200087 
  5.259E+00  2.072E+00                                            1418400200088 
  5.264E+00  2.039E+00                                            1418400200089 
  5.264E+00  2.051E+00                                            1418400200090 
  5.269E+00  2.077E+00                                            1418400200091 
  5.273E+00  2.061E+00                                            1418400200092 
  5.276E+00  2.036E+00                                            1418400200093 
  5.282E+00  2.053E+00                                            1418400200094 
  5.286E+00  2.033E+00                                            1418400200095 
  5.289E+00  2.044E+00                                            1418400200096 
  5.289E+00  2.062E+00                                            1418400200097 
  5.301E+00  2.055E+00                                            1418400200098 
  5.304E+00  2.070E+00                                            1418400200099 
  5.307E+00  2.099E+00                                            1418400200100 
  5.311E+00  2.136E+00                                            1418400200101 
  5.312E+00  2.166E+00                                            1418400200102 
  5.314E+00  2.210E+00                                            1418400200103 
  5.317E+00  2.222E+00                                            1418400200104 
  5.321E+00  2.217E+00                                            1418400200105 
  5.324E+00  2.269E+00                                            1418400200106 
  5.326E+00  2.309E+00                                            1418400200107 
  5.329E+00  2.351E+00                                            1418400200108 
  5.333E+00  2.340E+00                                            1418400200109 
  5.337E+00  2.312E+00                                            1418400200110 
  5.338E+00  2.332E+00                                            1418400200111 
  5.340E+00  2.348E+00                                            1418400200112 
  5.348E+00  2.384E+00                                            1418400200113 
  5.353E+00  2.352E+00                                            1418400200114 
  5.357E+00  2.326E+00                                            1418400200115 
  5.361E+00  2.294E+00                                            1418400200116 
  5.364E+00  2.287E+00                                            1418400200117 
  5.366E+00  2.261E+00                                            1418400200118 
  5.367E+00  2.227E+00                                            1418400200119 
  5.371E+00  2.245E+00                                            1418400200120 
  5.375E+00  2.235E+00                                            1418400200121 
  5.379E+00  2.287E+00                                            1418400200122 
  5.383E+00  2.241E+00                                            1418400200123 
  5.385E+00  2.268E+00                                            1418400200124 
  5.387E+00  2.342E+00                                            1418400200125 
  5.387E+00  2.291E+00                                            1418400200126 
  5.388E+00  2.359E+00                                            1418400200127 
  5.397E+00  2.364E+00                                            1418400200128 
  5.400E+00  2.350E+00                                            1418400200129 
  5.405E+00  2.333E+00                                            1418400200130 
  5.408E+00  2.311E+00                                            1418400200131 
  5.412E+00  2.258E+00                                            1418400200132 
  5.415E+00  2.176E+00                                            1418400200133 
  5.419E+00  2.129E+00                                            1418400200134 
  5.422E+00  2.118E+00                                            1418400200135 
  5.425E+00  2.059E+00                                            1418400200136 
  5.428E+00  2.044E+00                                            1418400200137 
  5.430E+00  2.008E+00                                            1418400200138 
  5.432E+00  1.985E+00                                            1418400200139 
  5.439E+00  2.014E+00                                            1418400200140 
  5.442E+00  1.991E+00                                            1418400200141 
  5.445E+00  2.029E+00                                            1418400200142 
  5.448E+00  2.048E+00                                            1418400200143 
  5.450E+00  2.042E+00                                            1418400200144 
  5.454E+00  2.068E+00                                            1418400200145 
  5.458E+00  2.096E+00                                            1418400200146 
  5.462E+00  2.083E+00                                            1418400200147 
  5.465E+00  2.064E+00                                            1418400200148 
  5.467E+00  2.039E+00                                            1418400200149 
  5.472E+00  2.046E+00                                            1418400200150 
  5.474E+00  2.058E+00                                            1418400200151 
  5.477E+00  2.088E+00                                            1418400200152 
  5.479E+00  2.136E+00                                            1418400200153 
  5.487E+00  2.109E+00                                            1418400200154 
  5.492E+00  2.099E+00                                            1418400200155 
  5.495E+00  2.075E+00                                            1418400200156 
  5.501E+00  2.036E+00                                            1418400200157 
  5.503E+00  2.018E+00                                            1418400200158 
  5.509E+00  2.025E+00                                            1418400200159 
  5.510E+00  1.974E+00                                            1418400200160 
  5.516E+00  1.967E+00                                            1418400200161 
  5.522E+00  2.009E+00                                            1418400200162 
  5.523E+00  1.974E+00                                            1418400200163 
  5.526E+00  2.004E+00                                            1418400200164 
  5.529E+00  1.981E+00                                            1418400200165 
  5.532E+00  1.993E+00                                            1418400200166 
  5.534E+00  2.012E+00                                            1418400200167 
  5.541E+00  1.974E+00                                            1418400200168 
  5.544E+00  1.988E+00                                            1418400200169 
  5.549E+00  1.951E+00                                            1418400200170 
  5.558E+00  1.969E+00                                            1418400200171 
  5.562E+00  1.978E+00                                            1418400200172 
  5.564E+00  1.996E+00                                            1418400200173 
  5.567E+00  2.005E+00                                            1418400200174 
  5.569E+00  2.012E+00                                            1418400200175 
  5.573E+00  2.069E+00                                            1418400200176 
  5.577E+00  2.095E+00                                            1418400200177 
  5.580E+00  2.188E+00                                            1418400200178 
  5.580E+00  2.140E+00                                            1418400200179 
  5.585E+00  2.229E+00                                            1418400200180 
  5.587E+00  2.201E+00                                            1418400200181 
  5.590E+00  2.186E+00                                            1418400200182 
  5.592E+00  2.157E+00                                            1418400200183 
  5.597E+00  2.137E+00                                            1418400200184 
  5.600E+00  2.092E+00                                            1418400200185 
  5.604E+00  2.027E+00                                            1418400200186 
  5.609E+00  2.037E+00                                            1418400200187 
  5.615E+00  2.011E+00                                            1418400200188 
  5.616E+00  2.013E+00                                            1418400200189 
  5.619E+00  2.022E+00                                            1418400200190 
  5.620E+00  2.042E+00                                            1418400200191 
  5.624E+00  2.086E+00                                            1418400200192 
  5.627E+00  2.072E+00                                            1418400200193 
  5.629E+00  2.056E+00                                            1418400200194 
  5.634E+00  2.065E+00                                            1418400200195 
  5.635E+00  2.050E+00                                            1418400200196 
  5.638E+00  2.015E+00                                            1418400200197 
  5.639E+00  2.023E+00                                            1418400200198 
  5.645E+00  2.071E+00                                            1418400200199 
  5.648E+00  2.046E+00                                            1418400200200 
  5.655E+00  2.025E+00                                            1418400200201 
  5.656E+00  2.036E+00                                            1418400200202 
  5.663E+00  2.019E+00                                            1418400200203 
  5.667E+00  2.036E+00                                            1418400200204 
  5.670E+00  2.067E+00                                            1418400200205 
  5.676E+00  2.075E+00                                            1418400200206 
  5.680E+00  2.104E+00                                            1418400200207 
  5.683E+00  2.149E+00                                            1418400200208 
  5.684E+00  2.158E+00                                            1418400200209 
  5.689E+00  2.141E+00                                            1418400200210 
  5.691E+00  2.126E+00                                            1418400200211 
  5.694E+00  2.155E+00                                            1418400200212 
  5.699E+00  2.149E+00                                            1418400200213 
  5.701E+00  2.130E+00                                            1418400200214 
  5.707E+00  2.106E+00                                            1418400200215 
  5.710E+00  2.051E+00                                            1418400200216 
  5.717E+00  2.092E+00                                            1418400200217 
  5.722E+00  2.060E+00                                            1418400200218 
  5.722E+00  2.073E+00                                            1418400200219 
  5.727E+00  2.052E+00                                            1418400200220 
  5.730E+00  1.992E+00                                            1418400200221 
  5.733E+00  1.979E+00                                            1418400200222 
  5.735E+00  1.962E+00                                            1418400200223 
  5.739E+00  1.970E+00                                            1418400200224 
  5.742E+00  1.985E+00                                            1418400200225 
  5.743E+00  2.002E+00                                            1418400200226 
  5.749E+00  2.012E+00                                            1418400200227 
  5.751E+00  1.998E+00                                            1418400200228 
  5.754E+00  1.971E+00                                            1418400200229 
  5.756E+00  1.947E+00                                            1418400200230 
  5.760E+00  1.925E+00                                            1418400200231 
  5.767E+00  1.905E+00                                            1418400200232 
  5.774E+00  1.913E+00                                            1418400200233 
  5.776E+00  1.927E+00                                            1418400200234 
  5.779E+00  1.960E+00                                            1418400200235 
  5.784E+00  1.953E+00                                            1418400200236 
  5.787E+00  1.931E+00                                            1418400200237 
  5.790E+00  1.963E+00                                            1418400200238 
  5.794E+00  1.980E+00                                            1418400200239 
  5.795E+00  1.997E+00                                            1418400200240 
  5.799E+00  2.042E+00                                            1418400200241 
  5.802E+00  2.076E+00                                            1418400200242 
  5.807E+00  2.144E+00                                            1418400200243 
  5.808E+00  2.179E+00                                            1418400200244 
  5.813E+00  2.187E+00                                            1418400200245 
  5.816E+00  2.157E+00                                            1418400200246 
  5.820E+00  2.194E+00                                            1418400200247 
  5.825E+00  2.124E+00                                            1418400200248 
  5.828E+00  2.066E+00                                            1418400200249 
  5.829E+00  2.099E+00                                            1418400200250 
  5.837E+00  2.076E+00                                            1418400200251 
  5.841E+00  2.060E+00                                            1418400200252 
  5.846E+00  2.000E+00                                            1418400200253 
  5.846E+00  2.047E+00                                            1418400200254 
  5.852E+00  2.006E+00                                            1418400200255 
  5.855E+00  1.996E+00                                            1418400200256 
  5.859E+00  2.025E+00                                            1418400200257 
  5.865E+00  2.009E+00                                            1418400200258 
  5.865E+00  2.017E+00                                            1418400200259 
  5.871E+00  2.062E+00                                            1418400200260 
  5.872E+00  2.083E+00                                            1418400200261 
  5.876E+00  2.142E+00                                            1418400200262 
  5.879E+00  2.193E+00                                            1418400200263 
  5.883E+00  2.203E+00                                            1418400200264 
  5.884E+00  2.214E+00                                            1418400200265 
  5.891E+00  2.277E+00                                            1418400200266 
  5.895E+00  2.314E+00                                            1418400200267 
  5.895E+00  2.342E+00                                            1418400200268 
  5.900E+00  2.348E+00                                            1418400200269 
  5.905E+00  2.332E+00                                            1418400200270 
  5.906E+00  2.357E+00                                            1418400200271 
  5.911E+00  2.343E+00                                            1418400200272 
  5.913E+00  2.305E+00                                            1418400200273 
  5.917E+00  2.267E+00                                            1418400200274 
  5.921E+00  2.259E+00                                            1418400200275 
  5.928E+00  2.280E+00                                            1418400200276 
  5.929E+00  2.298E+00                                            1418400200277 
  5.934E+00  2.312E+00                                            1418400200278 
  5.938E+00  2.302E+00                                            1418400200279 
  5.941E+00  2.247E+00                                            1418400200280 
  5.943E+00  2.180E+00                                            1418400200281 
  5.948E+00  2.150E+00                                            1418400200282 
  5.952E+00  2.116E+00                                            1418400200283 
  5.954E+00  2.123E+00                                            1418400200284 
  5.956E+00  2.140E+00                                            1418400200285 
  5.961E+00  2.155E+00                                            1418400200286 
  5.970E+00  2.105E+00                                            1418400200287 
  5.970E+00  2.139E+00                                            1418400200288 
  5.974E+00  2.113E+00                                            1418400200289 
  5.977E+00  2.124E+00                                            1418400200290 
  5.981E+00  2.115E+00                                            1418400200291 
  5.987E+00  2.081E+00                                            1418400200292 
  5.987E+00  2.110E+00                                            1418400200293 
  5.994E+00  2.104E+00                                            1418400200294 
  5.995E+00  2.140E+00                                            1418400200295 
  5.999E+00  2.126E+00                                            1418400200296 
  6.005E+00  2.097E+00                                            1418400200297 
  6.010E+00  2.147E+00                                            1418400200298 
  6.013E+00  2.163E+00                                            1418400200299 
  6.022E+00  2.158E+00                                            1418400200300 
  6.022E+00  2.174E+00                                            1418400200301 
  6.029E+00  2.146E+00                                            1418400200302 
  6.037E+00  2.143E+00                                            1418400200303 
  6.040E+00  2.114E+00                                            1418400200304 
  6.043E+00  2.090E+00                                            1418400200305 
  6.047E+00  2.098E+00                                            1418400200306 
  6.053E+00  2.105E+00                                            1418400200307 
  6.057E+00  2.076E+00                                            1418400200308 
  6.058E+00  2.092E+00                                            1418400200309 
  6.064E+00  2.073E+00                                            1418400200310 
  6.069E+00  2.033E+00                                            1418400200311 
  6.070E+00  2.041E+00                                            1418400200312 
  6.073E+00  2.059E+00                                            1418400200313 
  6.080E+00  2.072E+00                                            1418400200314 
  6.082E+00  2.085E+00                                            1418400200315 
  6.084E+00  2.138E+00                                            1418400200316 
  6.089E+00  2.209E+00                                            1418400200317 
  6.089E+00  2.148E+00                                            1418400200318 
  6.094E+00  2.223E+00                                            1418400200319 
  6.103E+00  2.209E+00                                            1418400200320 
  6.105E+00  2.195E+00                                            1418400200321 
  6.110E+00  2.170E+00                                            1418400200322 
  6.114E+00  2.179E+00                                            1418400200323 
  6.116E+00  2.152E+00                                            1418400200324 
  6.122E+00  2.133E+00                                            1418400200325 
  6.125E+00  2.067E+00                                            1418400200326 
  6.129E+00  2.037E+00                                            1418400200327 
  6.133E+00  2.006E+00                                            1418400200328 
  6.135E+00  1.969E+00                                            1418400200329 
  6.141E+00  1.974E+00                                            1418400200330 
  6.142E+00  1.949E+00                                            1418400200331 
  6.147E+00  1.937E+00                                            1418400200332 
  6.151E+00  1.923E+00                                            1418400200333 
  6.156E+00  1.906E+00                                            1418400200334 
  6.159E+00  1.888E+00                                            1418400200335 
  6.164E+00  1.870E+00                                            1418400200336 
  6.167E+00  1.860E+00                                            1418400200337 
  6.172E+00  1.853E+00                                            1418400200338 
  6.178E+00  1.845E+00                                            1418400200339 
  6.186E+00  1.875E+00                                            1418400200340 
  6.188E+00  1.897E+00                                            1418400200341 
  6.192E+00  1.882E+00                                            1418400200342 
  6.195E+00  1.891E+00                                            1418400200343 
  6.199E+00  1.900E+00                                            1418400200344 
  6.202E+00  1.909E+00                                            1418400200345 
  6.207E+00  1.889E+00                                            1418400200346 
  6.210E+00  1.874E+00                                            1418400200347 
  6.214E+00  1.868E+00                                            1418400200348 
  6.218E+00  1.881E+00                                            1418400200349 
  6.220E+00  1.848E+00                                            1418400200350 
  6.224E+00  1.855E+00                                            1418400200351 
  6.227E+00  1.884E+00                                            1418400200352 
  6.228E+00  1.906E+00                                            1418400200353 
  6.233E+00  1.868E+00                                            1418400200354 
  6.242E+00  1.875E+00                                            1418400200355 
  6.245E+00  1.909E+00                                            1418400200356 
  6.250E+00  1.924E+00                                            1418400200357 
  6.254E+00  1.939E+00                                            1418400200358 
  6.259E+00  1.983E+00                                            1418400200359 
  6.261E+00  1.996E+00                                            1418400200360 
  6.267E+00  2.019E+00                                            1418400200361 
  6.269E+00  2.045E+00                                            1418400200362 
  6.272E+00  2.062E+00                                            1418400200363 
  6.277E+00  2.078E+00                                            1418400200364 
  6.280E+00  2.099E+00                                            1418400200365 
  6.287E+00  2.090E+00                                            1418400200366 
  6.295E+00  2.069E+00                                            1418400200367 
  6.298E+00  2.083E+00                                            1418400200368 
  6.302E+00  2.075E+00                                            1418400200369 
  6.305E+00  2.040E+00                                            1418400200370 
  6.308E+00  2.025E+00                                            1418400200371 
  6.313E+00  2.033E+00                                            1418400200372 
  6.318E+00  2.046E+00                                            1418400200373 
  6.321E+00  2.058E+00                                            1418400200374 
  6.325E+00  2.079E+00                                            1418400200375 
  6.331E+00  2.094E+00                                            1418400200376 
  6.334E+00  2.110E+00                                            1418400200377 
  6.343E+00  2.097E+00                                            1418400200378 
  6.347E+00  2.063E+00                                            1418400200379 
  6.350E+00  2.035E+00                                            1418400200380 
  6.353E+00  2.001E+00                                            1418400200381 
  6.356E+00  1.989E+00                                            1418400200382 
  6.358E+00  1.976E+00                                            1418400200383 
  6.364E+00  1.969E+00                                            1418400200384 
  6.369E+00  1.936E+00                                            1418400200385 
  6.373E+00  1.973E+00                                            1418400200386 
  6.376E+00  1.996E+00                                            1418400200387 
  6.380E+00  2.012E+00                                            1418400200388 
  6.383E+00  2.032E+00                                            1418400200389 
  6.387E+00  2.065E+00                                            1418400200390 
  6.390E+00  2.090E+00                                            1418400200391 
  6.396E+00  2.073E+00                                            1418400200392 
  6.402E+00  2.065E+00                                            1418400200393 
  6.405E+00  2.050E+00                                            1418400200394 
  6.410E+00  2.020E+00                                            1418400200395 
  6.414E+00  2.047E+00                                            1418400200396 
  6.415E+00  2.088E+00                                            1418400200397 
  6.420E+00  2.149E+00                                            1418400200398 
  6.424E+00  2.174E+00                                            1418400200399 
  6.428E+00  2.184E+00                                            1418400200400 
  6.433E+00  2.207E+00                                            1418400200401 
  6.439E+00  2.190E+00                                            1418400200402 
  6.443E+00  2.138E+00                                            1418400200403 
  6.444E+00  2.162E+00                                            1418400200404 
  6.451E+00  2.182E+00                                            1418400200405 
  6.455E+00  2.213E+00                                            1418400200406 
  6.459E+00  2.220E+00                                            1418400200407 
  6.463E+00  2.249E+00                                            1418400200408 
  6.470E+00  2.279E+00                                            1418400200409 
  6.477E+00  2.236E+00                                            1418400200410 
  6.478E+00  2.223E+00                                            1418400200411 
  6.483E+00  2.168E+00                                            1418400200412 
  6.487E+00  2.130E+00                                            1418400200413 
  6.491E+00  2.105E+00                                            1418400200414 
  6.495E+00  2.098E+00                                            1418400200415 
  6.501E+00  2.081E+00                                            1418400200416 
  6.507E+00  2.068E+00                                            1418400200417 
  6.509E+00  2.048E+00                                            1418400200418 
  6.513E+00  2.016E+00                                            1418400200419 
  6.517E+00  2.004E+00                                            1418400200420 
  6.520E+00  1.969E+00                                            1418400200421 
  6.524E+00  1.938E+00                                            1418400200422 
  6.529E+00  1.961E+00                                            1418400200423 
  6.533E+00  1.969E+00                                            1418400200424 
  6.536E+00  1.986E+00                                            1418400200425 
  6.538E+00  2.015E+00                                            1418400200426 
  6.544E+00  2.035E+00                                            1418400200427 
  6.548E+00  2.090E+00                                            1418400200428 
  6.549E+00  2.061E+00                                            1418400200429 
  6.558E+00  2.065E+00                                            1418400200430 
  6.560E+00  2.031E+00                                            1418400200431 
  6.571E+00  1.990E+00                                            1418400200432 
  6.574E+00  1.980E+00                                            1418400200433 
  6.579E+00  2.027E+00                                            1418400200434 
  6.580E+00  1.976E+00                                            1418400200435 
  6.586E+00  2.020E+00                                            1418400200436 
  6.586E+00  2.077E+00                                            1418400200437 
  6.590E+00  2.050E+00                                            1418400200438 
  6.593E+00  2.031E+00                                            1418400200439 
  6.597E+00  2.038E+00                                            1418400200440 
  6.603E+00  2.049E+00                                            1418400200441 
  6.609E+00  2.038E+00                                            1418400200442 
  6.610E+00  1.997E+00                                            1418400200443 
  6.614E+00  2.011E+00                                            1418400200444 
  6.620E+00  1.966E+00                                            1418400200445 
  6.629E+00  1.955E+00                                            1418400200446 
  6.637E+00  1.937E+00                                            1418400200447 
  6.642E+00  1.903E+00                                            1418400200448 
  6.646E+00  1.847E+00                                            1418400200449 
  6.650E+00  1.801E+00                                            1418400200450 
  6.653E+00  1.813E+00                                            1418400200451 
  6.660E+00  1.804E+00                                            1418400200452 
  6.665E+00  1.816E+00                                            1418400200453 
  6.666E+00  1.827E+00                                            1418400200454 
  6.670E+00  1.839E+00                                            1418400200455 
  6.674E+00  1.857E+00                                            1418400200456 
  6.677E+00  1.868E+00                                            1418400200457 
  6.683E+00  1.861E+00                                            1418400200458 
  6.687E+00  1.873E+00                                            1418400200459 
  6.693E+00  1.887E+00                                            1418400200460 
  6.698E+00  1.898E+00                                            1418400200461 
  6.704E+00  1.924E+00                                            1418400200462 
  6.709E+00  1.943E+00                                            1418400200463 
  6.712E+00  1.983E+00                                            1418400200464 
  6.716E+00  2.002E+00                                            1418400200465 
  6.720E+00  2.013E+00                                            1418400200466 
  6.725E+00  1.986E+00                                            1418400200467 
  6.726E+00  1.999E+00                                            1418400200468 
  6.733E+00  1.971E+00                                            1418400200469 
  6.740E+00  1.962E+00                                            1418400200470 
  6.742E+00  1.985E+00                                            1418400200471 
  6.747E+00  1.996E+00                                            1418400200472 
  6.749E+00  2.016E+00                                            1418400200473 
  6.759E+00  2.011E+00                                            1418400200474 
  6.761E+00  2.029E+00                                            1418400200475 
  6.769E+00  2.020E+00                                            1418400200476 
  6.773E+00  2.000E+00                                            1418400200477 
  6.778E+00  1.982E+00                                            1418400200478 
  6.786E+00  1.990E+00                                            1418400200479 
  6.792E+00  1.963E+00                                            1418400200480 
  6.801E+00  1.971E+00                                            1418400200481 
  6.804E+00  1.945E+00                                            1418400200482 
  6.807E+00  1.919E+00                                            1418400200483 
  6.814E+00  1.924E+00                                            1418400200484 
  6.817E+00  1.930E+00                                            1418400200485 
  6.822E+00  1.941E+00                                            1418400200486 
  6.825E+00  1.958E+00                                            1418400200487 
  6.832E+00  1.977E+00                                            1418400200488 
  6.837E+00  1.999E+00                                            1418400200489 
  6.841E+00  1.970E+00                                            1418400200490 
  6.843E+00  1.959E+00                                            1418400200491 
  6.848E+00  1.935E+00                                            1418400200492 
  6.854E+00  1.957E+00                                            1418400200493 
  6.854E+00  1.977E+00                                            1418400200494 
  6.862E+00  1.966E+00                                            1418400200495 
  6.865E+00  1.980E+00                                            1418400200496 
  6.871E+00  1.989E+00                                            1418400200497 
  6.875E+00  2.054E+00                                            1418400200498 
  6.878E+00  2.089E+00                                            1418400200499 
  6.887E+00  2.082E+00                                            1418400200500 
  6.889E+00  2.102E+00                                            1418400200501 
  6.896E+00  2.115E+00                                            1418400200502 
  6.908E+00  2.109E+00                                            1418400200503 
  6.909E+00  2.051E+00                                            1418400200504 
  6.912E+00  2.025E+00                                            1418400200505 
  6.913E+00  1.976E+00                                            1418400200506 
  6.918E+00  1.984E+00                                            1418400200507 
  6.929E+00  1.968E+00                                            1418400200508 
  6.929E+00  1.979E+00                                            1418400200509 
  6.937E+00  1.974E+00                                            1418400200510 
  6.938E+00  2.010E+00                                            1418400200511 
  6.945E+00  2.054E+00                                            1418400200512 
  6.950E+00  2.042E+00                                            1418400200513 
  6.952E+00  2.006E+00                                            1418400200514 
  6.958E+00  2.000E+00                                            1418400200515 
  6.960E+00  1.952E+00                                            1418400200516 
  6.966E+00  1.929E+00                                            1418400200517 
  6.968E+00  1.904E+00                                            1418400200518 
  6.974E+00  1.916E+00                                            1418400200519 
  6.981E+00  1.899E+00                                            1418400200520 
  6.987E+00  1.885E+00                                            1418400200521 
  6.992E+00  1.865E+00                                            1418400200522 
  6.998E+00  1.881E+00                                            1418400200523 
ENDDATA            516          0                                 1418400200524 
ENDSUBENT          523          0                                 1418400299999 
SUBENT        14184003   20080829                             13761418400300001 
BIB                  3          5                                 1418400300002 
REACTION   (13-AL-28(0,0),,LD)                                    1418400300003 
STATUS     (CURVE) Data taken from Fig.3 of the reference         1418400300004 
           (DEP,14184002)                                         1418400300005 
ANALYSIS   (ERCSN) Level density inferred from fluctuation        1418400300006 
           measurement                                            1418400300007 
ENDBIB               5          0                                 1418400300008 
NOCOMMON             0          0                                 1418400300009 
DATA                 2          4                                 1418400300010 
E-EXC      DATA                                                   1418400300011 
MEV        1/MEV                                                  1418400300012 
  1.341E+01  3.146E+02                                            1418400300013 
  1.482E+01  7.102E+02                                            1418400300014 
  1.631E+01  2.194E+03                                            1418400300015 
  1.767E+01  2.372E+03                                            1418400300016 
ENDDATA              6          0                                 1418400300017 
ENDSUBENT           16          0                                 1418400399999 
SUBENT        14184004   20080829                             13761418400400001 
BIB                  3          5                                 1418400400002 
REACTION   (14-SI-29(0,0),,LD)                                    1418400400003 
STATUS     (CURVE) Data taken from Fig.4 of the reference         1418400400004 
           (DEP,14184002)                                         1418400400005 
ANALYSIS   (ERCSN) Level density inferred from fluctuation        1418400400006 
           measurement                                            1418400400007 
ENDBIB               5          0                                 1418400400008 
NOCOMMON             0          0                                 1418400400009 
DATA                 2          4                                 1418400400010 
E-EXC      DATA                                                   1418400400011 
MEV        1/MEV                                                  1418400400012 
  1.406E+01  6.601E+01                                            1418400400013 
  1.555E+01  4.186E+02                                            1418400400014 
  1.695E+01  3.056E+02                                            1418400400015 
  1.844E+01  1.092E+03                                            1418400400016 
ENDDATA              6          0                                 1418400400017 
ENDSUBENT           16          0                                 1418400499999 
SUBENT        14184005   20080829                             13761418400500001 
BIB                  3          4                                 1418400500002 
REACTION   (20-CA-41(0,0),,LD)                                    1418400500003 
STATUS     (CURVE) Data taken from Fig.5 of the reference         1418400500004 
ANALYSIS   (ERCSN) Level density inferred from fluctuation        1418400500005 
           measurement                                            1418400500006 
ENDBIB               4          0                                 1418400500007 
NOCOMMON             0          0                                 1418400500008 
DATA                 2          3                                 1418400500009 
E-EXC      DATA                                                   1418400500010 
MEV        1/MEV                                                  1418400500011 
  1.412E+01  2.609E+03                                            1418400500012 
  1.702E+01  4.558E+03                                            1418400500013 
  1.853E+01  1.364E+04                                            1418400500014 
ENDDATA              5          0                                 1418400500015 
ENDSUBENT           14          0                                 1418400599999 
ENDENTRY             5          0                                 1418499999999 
