ENTRY            14209   20100809                             13671420900000001 
SUBENT        14209001   20100809                             13671420900100001 
BIB                 13         38                                 1420900100002 
TITLE      Neutron capture cross section of 241Am                 1420900100003 
AUTHOR     (M.Jandel,T.A.Bredeweg,E.M.Bond,M.B.Chadwick,          1420900100004 
           R.R.Clement,A.Couture,J.M.O'Donnell,R.C.Haight,        1420900100005 
           T.Kawano,R.Reifarth,R.S.Rundberg,J.L.Ullmann,          1420900100006 
           D.J.Vieira,J.B.Wilhelmy,J.M.Wouters,U.Agvaanluvsan,    1420900100007 
           W.E.Parker,C.Y.Wu,J.A.Becker)                          1420900100008 
INSTITUTE  (1USALAS,1USALRL)                                      1420900100009 
REFERENCE  (J,PR/C,78,034609,2008) Main reference                 1420900100010 
           (S,AIP-1090,220,2009) Preliminary data                 1420900100011 
           Proc. of 13. Conf. on Capture gamma ray spectroscopy,  1420900100012 
           Cologne, 2008.                                         1420900100013 
FACILITY   (LINAC,1USALAS) LANSCE facility - a spallation neutron 1420900100014 
           source at the Los Alamos Neutron Science Center.       1420900100015 
INC-SOURCE (SPALL) 20.2 m neutron flight path 14. Neutron flux was1420900100016 
           determined by 3 different monitors. Neutron flux at the1420900100017 
           DANCE flight path was approximately                    1420900100018 
           at 0.1 eV    2.8E+5 n/(cm2 x eV x s)                   1420900100019 
             10.0 eV    4.2E+2 n/(cm2 x eV x s)                   1420900100020 
             10.0 keV   2.8E-1 n/(cm2 x eV x s)                   1420900100021 
           as measured by BF3 monitor.                            1420900100022 
SAMPLE     241Am was electroplated onto two 2.5mum-thick titanium 1420900100023 
           backing foils.Thin aluminized Mylar foils (300-mug/cm2)1420900100024 
           were used to cover the Am deposit.The diameter of the  1420900100025 
           241Am deposit was 6.35 mm.Total mass of  241Am in the  1420900100026 
           sample was 219 mu-g.                                   1420900100027 
DETECTOR   (BAF2) DANCE BaF2 array consisting of 160 BaF2 crystals1420900100028 
           arranged in a 4pi geometry. Each crystal has a depth   1420900100029 
           of 15 cm and a volume of  approx. 734 cm3.             1420900100030 
METHOD     (TOF) 22.2 m flight path                               1420900100031 
HISTORY    (20081002C) Compiled by S.H.                           1420900100032 
           (20100809A) Second reference added, STATUS in subs     1420900100033 
                       2-4 corrected                              1420900100034 
ERR-ANALYS (DATA-ERR) Total error including uncertainties of      1420900100035 
           (ERR-1)  neutron flux normalisation  5.0%              1420900100036 
           (ERR-2,,10.)  background subtraction    <10.0%         1420900100037 
           (ERR-S,,0.5)  statistics                < 0.5%         1420900100038 
MONITOR    (3-LI-6(N,T)2-HE-4,,SIG)         LiF foil at 22.59 m   1420900100039 
MONIT-REF  (,,3,ENDF/B-VII.0,325,2006)                            1420900100040 
ENDBIB              38          0                                 1420900100041 
COMMON               1          3                                 1420900100042 
ERR-1                                                             1420900100043 
PER-CENT                                                          1420900100044 
5.0                                                               1420900100045 
ENDCOMMON            3          0                                 1420900100046 
ENDSUBENT           45          0                                 1420900199999 
SUBENT        14209002   20100809                             13671420900200001 
BIB                  2          2                                 1420900200002 
REACTION   (95-AM-241(N,G)95-AM-242,,SIG)                         1420900200003 
STATUS     (TABLE) Table 1. of the main reference                 1420900200004 
ENDBIB               2          0                                 1420900200005 
NOCOMMON             0          0                                 1420900200006 
DATA                 3          1                                 1420900200007 
EN         DATA       DATA-ERR                                    1420900200008 
EV         B          B                                           1420900200009 
0.0253     665.0      33.0                                        1420900200010 
ENDDATA              3          0                                 1420900200011 
ENDSUBENT           10          0                                 1420900299999 
SUBENT        14209003   20100809                             13671420900300001 
BIB                  2          2                                 1420900300002 
REACTION   (95-AM-241(N,G)95-AM-242,,RI)                          1420900300003 
STATUS     (TABLE) Data taken from Tab. 1 of the main reference   1420900300004 
ENDBIB               2          0                                 1420900300005 
NOCOMMON             0          0                                 1420900300006 
DATA                 3          1                                 1420900300007 
EN-MIN     DATA       DATA-ERR                                    1420900300008 
EV         B          B                                           1420900300009 
0.5        1553.0     7.0                                         1420900300010 
ENDDATA              3          0                                 1420900300011 
ENDSUBENT           10          0                                 1420900399999 
SUBENT        14209004   20100809                             13671420900400001 
BIB                  2          4                                 1420900400002 
REACTION  1(95-AM-241(N,0),,EN)                                   1420900400003 
          2(95-AM-241(N,G),,WID)                                  1420900400004 
          3(95-AM-241(N,EL),,WID,,2G)                             1420900400005 
STATUS     (TABLE) Data taken from Tab. 2 of the reference        1420900400006 
ENDBIB               4          0                                 1420900400007 
NOCOMMON             0          0                                 1420900400008 
DATA                 6         20                                 1420900400009 
DATA      1ERR-T     1DATA      2DATA-ERR  2DATA      3DATA-ERR  31420900400010 
EV         EV         MILLI-EV   MILLI-EV   MILLI-EV   MILLI-EV   1420900400011 
 0.3051    0.0002     44.4       0.3        0.0622     0.0004     1420900400012 
 0.5724    0.0003     43.3       0.5        0.1030     0.0007     1420900400013 
 1.2718    0.0004     45.3       0.7        0.347      0.004      1420900400014 
 1.922     0.001      41.0       0.2        0.117      0.002      1420900400015 
 2.363     0.002      50.0       0.8        0.078      0.003      1420900400016 
 2.599     0.002      48.0       0.3        0.147      0.004      1420900400017 
 3.973                44.5                  0.208      0.008      1420900400018 
 4.968                43.8                  0.178      0.007      1420900400019 
 5.415                44.2                  0.74       0.02       1420900400020 
 5.8                  44.2                  0.0020     0.0002     1420900400021 
 6.117                43.8                  0.127      0.009      1420900400022 
 6.745                44.2                  0.033      0.003      1420900400023 
 7.659                44.2                  0.048      0.005      1420900400024 
 8.173                42.7                  0.105      0.007      1420900400025 
 9.113                44.2                  0.364      0.024      1420900400026 
 9.851                43.9                  0.40       0.002      1420900400027 
10.116                44.2                  0.027      0.003      1420900400028 
10.404     0.006      45.0       0.4        0.35       0.002      1420900400029 
10.997                46.5                  0.41       0.003      1420900400030 
11.583                44.2                  0.022      0.002      1420900400031 
ENDDATA             22          0                                 1420900400032 
ENDSUBENT           31          0                                 1420900499999 
SUBENT        14209005   20081002                             13511420900500001 
BIB                  3          7                                 1420900500002 
REACTION   (95-AM-241(N,G)95-AM-242,,SIG,,AV)                     1420900500003 
STATUS     (TABLE) Data obtained from author (M.J.)               1420900500004 
COMMENT    In the entry there are several data points             1420900500005 
           which show negative value of cross section.            1420900500006 
           They are probably a result of code, processing         1420900500007 
           the experimental data. Negative values were            1420900500008 
           left in the table.                                     1420900500009 
ENDBIB               7          0                                 1420900500010 
NOCOMMON             0          0                                 1420900500011 
DATA                 4        984                                 1420900500012 
EN-MIN     EN-MAX     DATA       DATA-ERR                         1420900500013 
EV         EV         B          B                                1420900500014 
0.0200000  0.0202010  756.20     25.46                            1420900500015 
0.0202010  0.0204040  742.43     24.85                            1420900500016 
0.0204040  0.0206090  740.05     24.76                            1420900500017 
0.0206090  0.0208162  731.89     24.65                            1420900500018 
0.0208162  0.0210254  750.80     24.71                            1420900500019 
0.0210254  0.0212367  720.79     23.78                            1420900500020 
0.0212367  0.0214501  724.18     23.81                            1420900500021 
0.0214501  0.0216657  735.25     23.29                            1420900500022 
0.0216657  0.0218835  706.47     22.79                            1420900500023 
0.0218835  0.0221034  713.71     22.70                            1420900500024 
0.0221034  0.0223255  672.02     21.88                            1420900500025 
0.0223255  0.0225499  664.80     21.53                            1420900500026 
0.0225499  0.0227765  735.31     22.59                            1420900500027 
0.0227765  0.0230055  733.45     22.20                            1420900500028 
0.0230055  0.0232367  697.96     21.84                            1420900500029 
0.0232367  0.0234702  710.63     21.57                            1420900500030 
0.0234702  0.0237061  693.36     21.51                            1420900500031 
0.0237061  0.0239443  700.64     21.29                            1420900500032 
0.0239443  0.0241850  686.99     20.90                            1420900500033 
0.0241850  0.0244280  664.34     20.52                            1420900500034 
0.0244280  0.0246736  655.36     20.20                            1420900500035 
0.0246736  0.0249215  663.21     20.34                            1420900500036 
0.0249215  0.0251720  657.03     20.07                            1420900500037 
0.0251720  0.0254250  641.67     19.81                            1420900500038 
0.0254250  0.0256805  690.01     20.48                            1420900500039 
0.0256805  0.0259386  648.01     19.73                            1420900500040 
0.0259386  0.0261993  637.31     19.56                            1420900500041 
0.0261993  0.0264626  673.30     19.89                            1420900500042 
0.0264626  0.0267286  647.07     19.27                            1420900500043 
0.0267286  0.0269972  636.48     18.86                            1420900500044 
0.0269972  0.0272685  656.00     19.30                            1420900500045 
0.0272685  0.0275426  659.39     19.11                            1420900500046 
0.0275426  0.0278194  636.63     18.73                            1420900500047 
0.0278194  0.0280990  609.48     18.34                            1420900500048 
0.0280990  0.0283814  611.62     18.39                            1420900500049 
0.0283814  0.0286666  641.96     18.57                            1420900500050 
0.0286666  0.0289547  648.45     18.57                            1420900500051 
0.0289547  0.0292457  634.53     18.19                            1420900500052 
0.0292457  0.0295397  604.81     17.66                            1420900500053 
0.0295397  0.0298365  598.22     17.63                            1420900500054 
0.0298365  0.0301364  616.79     17.72                            1420900500055 
0.0301364  0.0304393  594.11     17.39                            1420900500056 
0.0304393  0.0307452  614.59     17.61                            1420900500057 
0.0307452  0.0310542  613.70     17.54                            1420900500058 
0.0310542  0.0313663  615.29     17.59                            1420900500059 
0.0313663  0.0316816  619.49     17.49                            1420900500060 
0.0316816  0.0320000  595.07     17.06                            1420900500061 
0.0320000  0.0323216  581.73     16.80                            1420900500062 
0.0323216  0.0326464  594.84     16.73                            1420900500063 
0.0326464  0.0329745  563.16     16.54                            1420900500064 
0.0329745  0.0333059  583.92     16.73                            1420900500065 
0.0333059  0.0336406  584.31     16.52                            1420900500066 
0.0336406  0.0339787  558.47     16.13                            1420900500067 
0.0339787  0.0343202  549.37     15.98                            1420900500068 
0.0343202  0.0346652  558.43     16.10                            1420900500069 
0.0346652  0.0350136  577.62     16.33                            1420900500070 
0.0350136  0.0353655  569.92     16.03                            1420900500071 
0.0353655  0.0357209  573.83     16.06                            1420900500072 
0.0357209  0.0360799  548.48     15.66                            1420900500073 
0.0360799  0.0364425  557.55     15.72                            1420900500074 
0.0364425  0.0368088  531.29     15.28                            1420900500075 
0.0368088  0.0371787  550.03     15.48                            1420900500076 
0.0371787  0.0375524  566.48     15.55                            1420900500077 
0.0375524  0.0379298  555.18     15.43                            1420900500078 
0.0379298  0.0383110  537.66     15.15                            1420900500079 
0.0383110  0.0386960  532.32     15.07                            1420900500080 
0.0386960  0.0390849  516.45     14.80                            1420900500081 
0.0390849  0.0394777  519.20     14.63                            1420900500082 
0.0394777  0.0398745  491.14     14.28                            1420900500083 
0.0398745  0.0402752  517.45     14.68                            1420900500084 
0.0402752  0.0406800  533.21     14.79                            1420900500085 
0.0406800  0.0410889  526.42     14.65                            1420900500086 
0.0410889  0.0415018  489.24     13.97                            1420900500087 
0.0415018  0.0419189  487.24     14.14                            1420900500088 
0.0419189  0.0423402  511.58     14.46                            1420900500089 
0.0423402  0.0427657  496.61     14.10                            1420900500090 
0.0427657  0.0431956  494.66     14.12                            1420900500091 
0.0431956  0.0436297  503.81     14.30                            1420900500092 
0.0436297  0.0440682  461.56     13.52                            1420900500093 
0.0440682  0.0445111  508.82     14.21                            1420900500094 
0.0445111  0.0449584  464.85     13.65                            1420900500095 
0.0449584  0.0454103  495.50     13.96                            1420900500096 
0.0454103  0.0458666  480.57     13.86                            1420900500097 
0.0458666  0.0463276  470.33     13.69                            1420900500098 
0.0463276  0.0467932  460.57     13.48                            1420900500099 
0.0467932  0.0472635  459.09     13.40                            1420900500100 
0.0472635  0.0477385  456.16     13.42                            1420900500101 
0.0477385  0.0482183  468.23     13.52                            1420900500102 
0.0482183  0.0487029  465.15     13.48                            1420900500103 
0.0487029  0.0491924  463.61     13.37                            1420900500104 
0.0491924  0.0496868  453.78     13.28                            1420900500105 
0.0496868  0.0501861  453.39     13.24                            1420900500106 
0.0501861  0.0506905  458.39     13.34                            1420900500107 
0.0506905  0.0512000  487.05     13.79                            1420900500108 
0.0512000  0.0517146  419.30     12.74                            1420900500109 
0.0517146  0.0522343  418.06     12.74                            1420900500110 
0.0522343  0.0527593  432.46     12.98                            1420900500111 
0.0527593  0.0532895  453.00     13.23                            1420900500112 
0.0532895  0.0538251  423.15     12.84                            1420900500113 
0.0538251  0.0543660  447.30     13.16                            1420900500114 
0.0543660  0.0549124  399.08     12.39                            1420900500115 
0.0549124  0.0554643  422.80     12.78                            1420900500116 
0.0554643  0.0560217  440.77     13.01                            1420900500117 
0.0560217  0.0565848  401.13     12.52                            1420900500118 
0.0565848  0.0571535  403.87     12.51                            1420900500119 
0.0571535  0.0577279  413.15     12.61                            1420900500120 
0.0577279  0.0583081  411.74     12.68                            1420900500121 
0.0583081  0.0588941  427.29     12.85                            1420900500122 
0.0588941  0.0594860  412.15     12.57                            1420900500123 
0.0594860  0.0600838  425.62     12.93                            1420900500124 
0.0600838  0.0606877  403.68     12.69                            1420900500125 
0.0606877  0.0612976  408.80     12.76                            1420900500126 
0.0612976  0.0619137  381.21     12.20                            1420900500127 
0.0619137  0.0625359  388.48     12.38                            1420900500128 
0.0625359  0.0631644  393.71     12.56                            1420900500129 
0.0631644  0.0637992  391.59     12.48                            1420900500130 
0.0637992  0.0644404  400.57     12.77                            1420900500131 
0.0644404  0.0650881  404.92     12.85                            1420900500132 
0.0650881  0.0657422  381.53     12.38                            1420900500133 
0.0657422  0.0664030  398.28     12.84                            1420900500134 
0.0664030  0.0670703  379.84     12.47                            1420900500135 
0.0670703  0.0677444  377.20     12.46                            1420900500136 
0.0677444  0.0684252  377.25     12.50                            1420900500137 
0.0684252  0.0691129  376.78     12.54                            1420900500138 
0.0691129  0.0698075  376.37     12.58                            1420900500139 
0.0698075  0.0705091  358.62     12.08                            1420900500140 
0.0705091  0.0712178  379.15     12.71                            1420900500141 
0.0712178  0.0719335  373.94     12.60                            1420900500142 
0.0719335  0.0726565  373.39     12.63                            1420900500143 
0.0726565  0.0733867  353.43     12.37                            1420900500144 
0.0733867  0.0741242  355.18     12.50                            1420900500145 
0.0741242  0.0748692  367.93     12.73                            1420900500146 
0.0748692  0.0756217  344.58     12.35                            1420900500147 
0.0756217  0.0763817  358.22     12.76                            1420900500148 
0.0763817  0.0771493  342.12     12.39                            1420900500149 
0.0771493  0.0779247  309.38     11.82                            1420900500150 
0.0779247  0.0787079  349.80     12.61                            1420900500151 
0.0787079  0.0794989  349.74     12.77                            1420900500152 
0.0794989  0.0802979  353.27     12.87                            1420900500153 
0.0802979  0.0811049  344.45     12.71                            1420900500154 
0.0811049  0.0819200  344.03     12.82                            1420900500155 
0.0819200  0.0827433  366.81     13.25                            1420900500156 
0.0827433  0.0835749  332.05     12.83                            1420900500157 
0.0835749  0.0844149  342.08     13.06                            1420900500158 
0.0844149  0.0852633  322.07     12.85                            1420900500159 
0.0852633  0.0861202  359.99     13.42                            1420900500160 
0.0861202  0.0869857  348.28     13.31                            1420900500161 
0.0869857  0.0878599  344.79     13.28                            1420900500162 
0.0878599  0.0887430  365.08     13.81                            1420900500163 
0.0887430  0.0896349  313.24     12.93                            1420900500164 
0.0896349  0.0905357  323.98     13.33                            1420900500165 
0.0905357  0.0914456  335.91     13.45                            1420900500166 
0.0914456  0.0923647  338.57     13.58                            1420900500167 
0.0923647  0.0932930  322.02     13.46                            1420900500168 
0.0932930  0.0942306  327.81     13.78                            1420900500169 
0.0942306  0.0951776  321.27     13.48                            1420900500170 
0.0951776  0.0961342  309.06     13.39                            1420900500171 
0.0961342  0.0971003  321.89     13.68                            1420900500172 
0.0971003  0.0980762  296.87     13.55                            1420900500173 
0.0980762  0.0990619  302.68     13.60                            1420900500174 
0.0990619  0.1000575  335.87     14.45                            1420900500175 
0.1000575  0.1010631  303.05     13.90                            1420900500176 
0.1010631  0.1020788  309.41     14.00                            1420900500177 
0.1020788  0.1031047  282.99     13.59                            1420900500178 
0.1031047  0.1041410  294.48     13.93                            1420900500179 
0.1041410  0.1051876  338.31     15.04                            1420900500180 
0.1051876  0.1062448  319.33     14.80                            1420900500181 
0.1062448  0.1073126  293.73     14.20                            1420900500182 
0.1073126  0.1083911  300.77     14.72                            1420900500183 
0.1083911  0.1094804  327.49     15.23                            1420900500184 
0.1094804  0.1105808  308.59     14.80                            1420900500185 
0.1105808  0.1116921  321.20     15.44                            1420900500186 
0.1116921  0.1128147  328.04     15.62                            1420900500187 
0.1128147  0.1139485  317.19     15.42                            1420900500188 
0.1139485  0.1150937  317.36     15.88                            1420900500189 
0.1150937  0.1162504  291.07     15.04                            1420900500190 
0.1162504  0.1174187  315.25     16.06                            1420900500191 
0.1174187  0.1185988  279.82     15.01                            1420900500192 
0.1185988  0.1197908  298.39     16.12                            1420900500193 
0.1197908  0.1209947  318.52     16.54                            1420900500194 
0.1209947  0.1222107  304.19     16.04                            1420900500195 
0.1222107  0.1234390  315.36     16.66                            1420900500196 
0.1234390  0.1246796  299.97     16.49                            1420900500197 
0.1246796  0.1259326  323.97     17.07                            1420900500198 
0.1259326  0.1271983  287.60     16.39                            1420900500199 
0.1271983  0.1284767  307.45     17.26                            1420900500200 
0.1284767  0.1297679  300.83     17.12                            1420900500201 
0.1297679  0.1310721  296.35     16.89                            1420900500202 
0.1310721  0.1323894  303.51     17.38                            1420900500203 
0.1323894  0.1337200  325.48     18.11                            1420900500204 
0.1337200  0.1350639  276.24     16.90                            1420900500205 
0.1350639  0.1364213  305.30     17.73                            1420900500206 
0.1364213  0.1377924  294.79     17.79                            1420900500207 
0.1377924  0.1391772  308.07     18.76                            1420900500208 
0.1391772  0.1405760  312.08     18.81                            1420900500209 
0.1405760  0.1419888  359.28     20.17                            1420900500210 
0.1419888  0.1434158  310.09     19.11                            1420900500211 
0.1434158  0.1448572  310.45     19.09                            1420900500212 
0.1448572  0.1463131  346.71     20.41                            1420900500213 
0.1463131  0.1477835  329.11     20.31                            1420900500214 
0.1477835  0.1492688  329.50     20.52                            1420900500215 
0.1492688  0.1507690  300.36     19.54                            1420900500216 
0.1507690  0.1522843  356.38     21.72                            1420900500217 
0.1522843  0.1538147  287.57     19.95                            1420900500218 
0.1538147  0.1553606  345.89     21.63                            1420900500219 
0.1553606  0.1569220  322.88     21.43                            1420900500220 
0.1569220  0.1584991  282.99     19.90                            1420900500221 
0.1584991  0.1600921  264.87     19.41                            1420900500222 
0.1600921  0.1617011  329.23     21.69                            1420900500223 
0.1617011  0.1633262  329.74     22.07                            1420900500224 
0.1633262  0.1649677  323.00     21.67                            1420900500225 
0.1649677  0.1666256  353.71     22.85                            1420900500226 
0.1666256  0.1683003  353.35     23.25                            1420900500227 
0.1683003  0.1699917  317.69     22.23                            1420900500228 
0.1699917  0.1717002  347.64     23.50                            1420900500229 
0.1717002  0.1734258  308.65     22.33                            1420900500230 
0.1734258  0.1751688  295.01     21.97                            1420900500231 
0.1751688  0.1769293  346.72     23.86                            1420900500232 
0.1769293  0.1787075  362.41     24.64                            1420900500233 
0.1787075  0.1805035  381.53     25.81                            1420900500234 
0.1805035  0.1823176  366.82     25.37                            1420900500235 
0.1823176  0.1841500  405.77     27.19                            1420900500236 
0.1841500  0.1860007  430.83     27.64                            1420900500237 
0.1860007  0.1878701  405.16     26.75                            1420900500238 
0.1878701  0.1897582  331.79     24.13                            1420900500239 
0.1897582  0.1916653  392.95     26.55                            1420900500240 
0.1916653  0.1935916  399.30     26.67                            1420900500241 
0.1935916  0.1955373  409.99     27.32                            1420900500242 
0.1955373  0.1975025  404.42     27.48                            1420900500243 
0.1975025  0.1994874  452.28     29.09                            1420900500244 
0.1994874  0.2014923  466.54     30.07                            1420900500245 
0.2014923  0.2035174  477.11     30.06                            1420900500246 
0.2035174  0.2055628  440.02     29.01                            1420900500247 
0.2055628  0.2076287  472.83     30.25                            1420900500248 
0.2076287  0.2097155  518.81     32.48                            1420900500249 
0.2097155  0.2118231  530.41     32.32                            1420900500250 
0.2118231  0.2139520  448.60     29.38                            1420900500251 
0.2139520  0.2161023  527.74     33.46                            1420900500252 
0.2161023  0.2182742  595.39     35.11                            1420900500253 
0.2182742  0.2204679  548.87     34.19                            1420900500254 
0.2204679  0.2226836  522.80     32.33                            1420900500255 
0.2226836  0.2249217  549.30     33.26                            1420900500256 
0.2249217  0.2271822  618.03     36.40                            1420900500257 
0.2271822  0.2294654  675.60     38.46                            1420900500258 
0.2294654  0.2317716  773.11     41.92                            1420900500259 
0.2317716  0.2341010  700.87     38.87                            1420900500260 
0.2341010  0.2364538  770.56     41.78                            1420900500261 
0.2364538  0.2388302  742.99     39.97                            1420900500262 
0.2388302  0.2412305  883.59     44.71                            1420900500263 
0.2412305  0.2436549  784.74     40.43                            1420900500264 
0.2436549  0.2461037  905.62     43.86                            1420900500265 
0.2461037  0.2485771  897.50     43.90                            1420900500266 
0.2485771  0.2510754  1085.5     49.39                            1420900500267 
0.2510754  0.2535987  1134.8     50.39                            1420900500268 
0.2535987  0.2561475  1259.8     53.49                            1420900500269 
0.2561475  0.2587218  1382.7     54.88                            1420900500270 
0.2587218  0.2613220  1452.7     57.89                            1420900500271 
0.2613220  0.2639484  1476.3     57.16                            1420900500272 
0.2639484  0.2666011  1710.1     61.51                            1420900500273 
0.2666011  0.2692805  1824.1     64.82                            1420900500274 
0.2692805  0.2719869  1995.0     67.26                            1420900500275 
0.2719869  0.2747204  2485.5     76.84                            1420900500276 
0.2747204  0.2774814  2559.7     76.04                            1420900500277 
0.2774814  0.2802702  2797.6     80.49                            1420900500278 
0.2802702  0.2830870  3079.5     84.58                            1420900500279 
0.2830870  0.2859321  3337.4     86.98                            1420900500280 
0.2859321  0.2888058  3554.6     87.14                            1420900500281 
0.2888058  0.2917083  4068.6     94.58                            1420900500282 
0.2917083  0.2946401  4534.7     101.0                            1420900500283 
0.2946401  0.2976013  5191.9     110.6                            1420900500284 
0.2976013  0.3005922  5530.7     113.5                            1420900500285 
0.3005922  0.3036133  5490.1     113.2                            1420900500286 
0.3036133  0.3066647  5347.0     110.8                            1420900500287 
0.3066647  0.3097467  5226.8     106.8                            1420900500288 
0.3097467  0.3128598  5067.6     108.6                            1420900500289 
0.3128598  0.3160041  5069.8     107.3                            1420900500290 
0.3160041  0.3191800  4368.6     100.2                            1420900500291 
0.3191800  0.3223878  4018.5     97.46                            1420900500292 
0.3223878  0.3256279  3578.2     90.48                            1420900500293 
0.3256279  0.3289006  3258.2     87.63                            1420900500294 
0.3289006  0.3322061  2926.4     85.15                            1420900500295 
0.3322061  0.3355448  2404.7     75.48                            1420900500296 
0.3355448  0.3389172  2202.5     72.44                            1420900500297 
0.3389172  0.3423234  1772.2     63.99                            1420900500298 
0.3423234  0.3457638  1715.1     66.63                            1420900500299 
0.3457638  0.3492388  1430.0     59.35                            1420900500300 
0.3492388  0.3527488  1196.2     54.55                            1420900500301 
0.3527488  0.3562940  1165.5     52.05                            1420900500302 
0.3562940  0.3598748  981.19     48.97                            1420900500303 
0.3598748  0.3634916  882.10     45.85                            1420900500304 
0.3634916  0.3671448  794.96     44.55                            1420900500305 
0.3671448  0.3708347  826.73     46.03                            1420900500306 
0.3708347  0.3745617  746.45     43.88                            1420900500307 
0.3745617  0.3783261  655.84     40.85                            1420900500308 
0.3783261  0.3821284  569.91     37.59                            1420900500309 
0.3821284  0.3859689  591.24     39.22                            1420900500310 
0.3859689  0.3898480  476.76     34.21                            1420900500311 
0.3898480  0.3937661  449.70     33.30                            1420900500312 
0.3937661  0.3977235  448.82     34.79                            1420900500313 
0.3977235  0.4017207  403.96     32.42                            1420900500314 
0.4017207  0.4057581  388.33     32.65                            1420900500315 
0.4057581  0.4098361  317.75     28.44                            1420900500316 
0.4098361  0.4139551  379.44     31.56                            1420900500317 
0.4139551  0.4181154  373.85     31.63                            1420900500318 
0.4181154  0.4223176  357.29     31.07                            1420900500319 
0.4223176  0.4265620  310.93     28.20                            1420900500320 
0.4265620  0.4308490  354.61     30.47                            1420900500321 
0.4308490  0.4351792  257.98     25.90                            1420900500322 
0.4351792  0.4395528  304.95     28.08                            1420900500323 
0.4395528  0.4439704  279.21     27.16                            1420900500324 
0.4439704  0.4484325  278.67     27.17                            1420900500325 
0.4484325  0.4529393  384.46     32.10                            1420900500326 
0.4529393  0.4574915  389.17     32.79                            1420900500327 
0.4574915  0.4620894  373.04     33.10                            1420900500328 
0.4620894  0.4667335  361.53     31.37                            1420900500329 
0.4667335  0.4714243  343.98     29.20                            1420900500330 
0.4714243  0.4761622  454.51     35.86                            1420900500331 
0.4761622  0.4809478  399.86     32.10                            1420900500332 
0.4809478  0.4857814  432.49     34.24                            1420900500333 
0.4857814  0.4906636  533.63     38.50                            1420900500334 
0.4906636  0.4955949  546.36     38.02                            1420900500335 
0.4955949  0.5005758  605.64     41.50                            1420900500336 
0.5005758  0.5056067  612.02     41.21                            1420900500337 
0.5056067  0.5106882  625.75     41.10                            1420900500338 
0.5106882  0.5158207  799.17     46.96                            1420900500339 
0.5158207  0.5210048  973.45     51.85                            1420900500340 
0.5210048  0.5262411  1091.2     52.99                            1420900500341 
0.5262411  0.5315299  1207.6     56.50                            1420900500342 
0.5315299  0.5368719  1728.1     69.35                            1420900500343 
0.5368719  0.5422676  1807.8     67.92                            1420900500344 
0.5422676  0.5477176  2400.2     79.81                            1420900500345 
0.5477176  0.5532223  2796.6     86.34                            1420900500346 
0.5532223  0.5587823  3478.6     95.49                            1420900500347 
0.5587823  0.5643982  3855.2     98.90                            1420900500348 
0.5643982  0.5700705  4648.3     113.3                            1420900500349 
0.5700705  0.5757999  4760.8     113.5                            1420900500350 
0.5757999  0.5815868  4299.2     104.9                            1420900500351 
0.5815868  0.5874319  4094.1     105.0                            1420900500352 
0.5874319  0.5933358  3266.4     91.13                            1420900500353 
0.5933358  0.5992989  2642.8     81.56                            1420900500354 
0.5992989  0.6053220  2414.9     81.92                            1420900500355 
0.6053220  0.6114057  1747.6     69.03                            1420900500356 
0.6114057  0.6175505  1492.8     63.67                            1420900500357 
0.6175505  0.6237570  1051.6     53.12                            1420900500358 
0.6237570  0.6300259  845.12     47.15                            1420900500359 
0.6300259  0.6363578  685.15     44.50                            1420900500360 
0.6363578  0.6427534  689.74     44.39                            1420900500361 
0.6427534  0.6492132  468.92     34.66                            1420900500362 
0.6492132  0.6557380  420.05     34.86                            1420900500363 
0.6557380  0.6623283  361.85     33.18                            1420900500364 
0.6623283  0.6689849  353.43     31.36                            1420900500365 
0.6689849  0.6757083  299.24     28.62                            1420900500366 
0.6757083  0.6824994  230.19     25.07                            1420900500367 
0.6824994  0.6893587  215.46     24.93                            1420900500368 
0.6893587  0.6962869  204.40     24.74                            1420900500369 
0.6962869  0.7032848  175.38     22.48                            1420900500370 
0.7032848  0.7103529  205.82     25.18                            1420900500371 
0.7103529  0.7174922  179.82     22.91                            1420900500372 
0.7174922  0.7247031  179.45     23.62                            1420900500373 
0.7247031  0.7319866  152.68     21.11                            1420900500374 
0.7319866  0.7393432  98.968     17.02                            1420900500375 
0.7393432  0.7467738  113.42     19.18                            1420900500376 
0.7467738  0.7542791  139.29     21.35                            1420900500377 
0.7542791  0.7618598  93.782     17.52                            1420900500378 
0.7618598  0.7695167  130.63     20.50                            1420900500379 
0.7695167  0.7772505  85.841     16.51                            1420900500380 
0.7772505  0.7850621  78.254     15.67                            1420900500381 
0.7850621  0.7929521  81.959     16.57                            1420900500382 
0.7929521  0.8009215  87.847     17.24                            1420900500383 
0.8009215  0.8089710  70.279     16.26                            1420900500384 
0.8089710  0.8171013  74.067     16.15                            1420900500385 
0.8171013  0.8253134  71.295     16.13                            1420900500386 
0.8253134  0.8336080  67.059     15.75                            1420900500387 
0.8336080  0.8419860  60.820     14.34                            1420900500388 
0.8419860  0.8504482  56.428     14.21                            1420900500389 
0.8504482  0.8589954  83.264     17.62                            1420900500390 
0.8589954  0.8676285  57.254     13.90                            1420900500391 
0.8676285  0.8763484  90.108     17.59                            1420900500392 
0.8763484  0.8851559  75.181     16.27                            1420900500393 
0.8851559  0.8940520  61.449     14.04                            1420900500394 
0.8940520  0.9030374  66.096     14.34                            1420900500395 
0.9030374  0.9121132  83.907     17.29                            1420900500396 
0.9121132  0.9212801  62.029     14.70                            1420900500397 
0.9212801  0.9305392  47.400     14.45                            1420900500398 
0.9305392  0.9398914  103.52     18.42                            1420900500399 
0.9398914  0.9493375  46.310     12.85                            1420900500400 
0.9493375  0.9588786  104.15     18.75                            1420900500401 
0.9588786  0.9685156  97.675     17.53                            1420900500402 
0.9685156  0.9782494  91.180     18.18                            1420900500403 
0.9782494  0.9880810  113.05     19.46                            1420900500404 
0.9880810  0.9980115  95.276     17.70                            1420900500405 
0.9980115  1.0080418  112.77     18.56                            1420900500406 
1.0080418  1.0181728  122.53     20.56                            1420900500407 
1.0181728  1.0284057  71.479     15.38                            1420900500408 
1.0284057  1.0387415  104.26     18.35                            1420900500409 
1.0387415  1.0491811  107.88     18.44                            1420900500410 
1.0491811  1.0597256  139.18     21.17                            1420900500411 
1.0597256  1.0703761  110.83     19.35                            1420900500412 
1.0703761  1.0811337  136.60     21.65                            1420900500413 
1.0811337  1.0919994  216.65     26.53                            1420900500414 
1.0919994  1.1029742  182.53     23.93                            1420900500415 
1.1029742  1.1140594  185.47     24.42                            1420900500416 
1.1140594  1.1252560  192.45     25.09                            1420900500417 
1.1252560  1.1365651  197.07     24.39                            1420900500418 
1.1365651  1.1479878  284.00     29.47                            1420900500419 
1.1479878  1.1595254  337.91     32.29                            1420900500420 
1.1595254  1.1711789  370.81     34.52                            1420900500421 
1.1711789  1.1829496  472.67     38.84                            1420900500422 
1.1829496  1.1948385  808.63     50.33                            1420900500423 
1.1948385  1.2068469  999.39     56.85                            1420900500424 
1.2068469  1.2189761  1375.6     63.65                            1420900500425 
1.2189761  1.2312271  1930.6     74.07                            1420900500426 
1.2312271  1.2436012  2910.2     91.82                            1420900500427 
1.2436012  1.2560997  4086.3     107.0                            1420900500428 
1.2560997  1.2687238  5619.2     129.2                            1420900500429 
1.2687238  1.2814748  5943.5     132.4                            1420900500430 
1.2814748  1.2943540  5261.3     124.5                            1420900500431 
1.2943540  1.3073626  3959.8     110.7                            1420900500432 
1.3073626  1.3205019  2589.6     90.31                            1420900500433 
1.3205019  1.3337733  1397.7     63.70                            1420900500434 
1.3337733  1.3471780  893.21     49.72                            1420900500435 
1.3471780  1.3607175  736.87     47.91                            1420900500436 
1.3607175  1.3743930  462.70     37.36                            1420900500437 
1.3743930  1.3882060  391.39     35.01                            1420900500438 
1.3882060  1.4021579  303.48     31.04                            1420900500439 
1.4021579  1.4162499  176.62     23.70                            1420900500440 
1.4162499  1.4304836  188.93     24.64                            1420900500441 
1.4304836  1.4448603  162.23     22.43                            1420900500442 
1.4448603  1.4593815  118.38     18.95                            1420900500443 
1.4593815  1.4740486  145.55     21.86                            1420900500444 
1.4740486  1.4888632  82.506     17.61                            1420900500445 
1.4888632  1.5038267  102.60     18.23                            1420900500446 
1.5038267  1.5189405  132.53     20.79                            1420900500447 
1.5189405  1.5342062  56.556     14.17                            1420900500448 
1.5342062  1.5496254  56.588     14.25                            1420900500449 
1.5496254  1.5651995  81.394     17.12                            1420900500450 
1.5651995  1.5809302  75.096     16.21                            1420900500451 
1.5809302  1.5968189  83.828     16.51                            1420900500452 
1.5968189  1.6128673  39.681     12.50                            1420900500453 
1.6128673  1.6290771  55.358     13.71                            1420900500454 
1.6290771  1.6454497  47.087     12.97                            1420900500455 
1.6454497  1.6619869  43.923     12.77                            1420900500456 
1.6619869  1.6786903  40.343     12.41                            1420900500457 
1.6786903  1.6955615  51.013     13.40                            1420900500458 
1.6955615  1.7126023  26.763     10.98                            1420900500459 
1.7126023  1.7298144  42.381     13.25                            1420900500460 
1.7298144  1.7471995  58.812     13.99                            1420900500461 
1.7471995  1.7647593  58.199     16.04                            1420900500462 
1.7647593  1.7824956  88.347     17.81                            1420900500463 
1.7824956  1.8004101  48.589     14.38                            1420900500464 
1.8004101  1.8185047  71.434     16.35                            1420900500465 
1.8185047  1.8367811  142.97     20.62                            1420900500466 
1.8367811  1.8552412  188.94     24.10                            1420900500467 
1.8552412  1.8738868  341.23     33.06                            1420900500468 
1.8738868  1.8927199  571.12     40.38                            1420900500469 
1.8927199  1.9117422  942.81     54.86                            1420900500470 
1.9117422  1.9309557  1259.5     62.61                            1420900500471 
1.9309557  1.9503623  1183.8     63.56                            1420900500472 
1.9503623  1.9699639  783.31     50.74                            1420900500473 
1.9699639  1.9897625  328.05     31.26                            1420900500474 
1.9897625  2.0097602  207.75     25.43                            1420900500475 
2.0097602  2.0299587  152.86     22.68                            1420900500476 
2.0299587  2.0503603  89.159     16.89                            1420900500477 
2.0503603  2.0709670  64.865     15.96                            1420900500478 
2.0709670  2.0917807  55.388     13.55                            1420900500479 
2.0917807  2.1128036  26.793     11.26                            1420900500480 
2.1128036  2.1340378  59.783     14.85                            1420900500481 
2.1340378  2.1554855  17.494      8.84                            1420900500482 
2.1554855  2.1771486  21.927     10.66                            1420900500483 
2.1771486  2.1990295  66.979     16.12                            1420900500484 
2.1990295  2.2211303  51.781     13.51                            1420900500485 
2.2211303  2.2434532  85.366     17.37                            1420900500486 
2.2434532  2.2660005  87.321     17.61                            1420900500487 
2.2660005  2.2887744  131.65     20.39                            1420900500488 
2.2887744  2.3117771  188.72     25.18                            1420900500489 
2.3117771  2.3350111  294.46     30.32                            1420900500490 
2.3350111  2.3584785  471.59     38.69                            1420900500491 
2.3584785  2.3821818  579.91     43.40                            1420900500492 
2.3821818  2.4061234  496.52     38.29                            1420900500493 
2.4061234  2.4303055  249.13     27.92                            1420900500494 
2.4303055  2.4547307  198.40     25.64                            1420900500495 
2.4547307  2.4794014  155.94     22.22                            1420900500496 
2.4794014  2.5043200  123.96     18.95                            1420900500497 
2.5043200  2.5294890  238.84     28.95                            1420900500498 
2.5294890  2.5549110  427.99     37.86                            1420900500499 
2.5549110  2.5805885  693.82     44.52                            1420900500500 
2.5805885  2.6065241  1063.1     59.97                            1420900500501 
2.6065241  2.6327203  759.66     47.19                            1420900500502 
2.6327203  2.6591798  517.68     42.74                            1420900500503 
2.6591798  2.6859052  173.06     23.65                            1420900500504 
2.6859052  2.7128992  112.02     18.98                            1420900500505 
2.7128992  2.7401646  97.630     17.97                            1420900500506 
2.7401646  2.7677039  47.053     15.02                            1420900500507 
2.7677039  2.7955200  17.983     9.546                            1420900500508 
2.7955200  2.8236157  20.602     10.01                            1420900500509 
2.8236157  2.8519938  13.025     7.850                            1420900500510 
2.8519938  2.8806570  23.243     9.936                            1420900500511 
2.8806570  2.9096083  3.3971     7.442                            1420900500512 
2.9096083  2.9388506  25.767     10.03                            1420900500513 
2.9388506  2.9683868  9.6236     7.103                            1420900500514 
2.9683868  2.9982198  23.169     10.67                            1420900500515 
2.9982198  3.0283527  5.8358     8.649                            1420900500516 
3.0283527  3.0587884  3.0391     6.581                            1420900500517 
3.0587884  3.0895300  5.3598     6.204                            1420900500518 
3.0895300  3.1205806  16.761     8.897                            1420900500519 
3.1205806  3.1519432  -6.337     4.605                            1420900500520 
3.1519432  3.1836210  18.468     8.910                            1420900500521 
3.1836210  3.2156172  40.510     11.73                            1420900500522 
3.2156172  3.2479350  12.051     7.916                            1420900500523 
3.2479350  3.2805775  35.309     11.31                            1420900500524 
3.2805775  3.3135481  8.2378     9.007                            1420900500525 
3.3135481  3.3468501  5.6359     6.523                            1420900500526 
3.3468501  3.3804868  11.992     8.325                            1420900500527 
3.3804868  3.4144616  22.686     10.69                            1420900500528 
3.4144616  3.4487778  5.5993     5.497                            1420900500529 
3.4487778  3.4834388  5.8610     7.753                            1420900500530 
3.4834388  3.5184483  18.323     9.507                            1420900500531 
3.5184483  3.5538096  12.233     7.135                            1420900500532 
3.5538096  3.5895263  14.372     8.982                            1420900500533 
3.5895263  3.6256019  13.570     8.359                            1420900500534 
3.6256019  3.6620401  3.0183     6.531                            1420900500535 
3.6620401  3.6988445  34.509     10.79                            1420900500536 
3.6988445  3.7360188  16.048     9.576                            1420900500537 
3.7360188  3.7735668  31.581     10.71                            1420900500538 
3.7735668  3.8114921  46.168     12.70                            1420900500539 
3.8114921  3.8497985  91.546     18.63                            1420900500540 
3.8497985  3.8884900  120.90     21.30                            1420900500541 
3.8884900  3.9275703  269.52     31.29                            1420900500542 
3.9275703  3.9670433  627.23     46.12                            1420900500543 
3.9670433  4.0069131  762.49     47.43                            1420900500544 
4.0069131  4.0471836  429.08     37.53                            1420900500545 
4.0471836  4.0878588  191.98     25.81                            1420900500546 
4.0878588  4.1289428  98.864     19.62                            1420900500547 
4.1289428  4.1704397  22.686     10.33                            1420900500548 
4.1704397  4.2123537  55.704     14.92                            1420900500549 
4.2123537  4.2546889  9.5490     7.655                            1420900500550 
4.2546889  4.2974496  10.950     8.376                            1420900500551 
4.2974496  4.3406401  18.144     9.848                            1420900500552 
4.3406401  4.3842646  13.862     8.327                            1420900500553 
4.3842646  4.4283275  4.4815     6.889                            1420900500554 
4.4283275  4.4728334  5.3801     6.655                            1420900500555 
4.4728334  4.5177865  10.725     9.025                            1420900500556 
4.5177865  4.5631913  8.9748     8.396                            1420900500557 
4.5631913  4.6090526  16.363     11.50                            1420900500558 
4.6090526  4.6553747  31.282     11.69                            1420900500559 
4.6553747  4.7021624  1.2808     6.455                            1420900500560 
4.7021624  4.7494203  31.978     10.80                            1420900500561 
4.7494203  4.7971532  55.476     14.63                            1420900500562 
4.7971532  4.8453658  52.057     14.86                            1420900500563 
4.8453658  4.8940629  124.34     20.11                            1420900500564 
4.8940629  4.9432495  221.00     27.19                            1420900500565 
4.9432495  4.9929304  465.15     39.39                            1420900500566 
4.9929304  5.0431106  424.51     38.45                            1420900500567 
5.0431106  5.0937951  94.544     18.33                            1420900500568 
5.0937951  5.1449890  102.57     20.27                            1420900500569 
5.1449890  5.1966975  103.77     20.72                            1420900500570 
5.1966975  5.2489256  180.62     27.38                            1420900500571 
5.2489256  5.3016786  261.58     31.68                            1420900500572 
5.3016786  5.3549618  490.37     39.74                            1420900500573 
5.3549618  5.4087805  1009.9     56.44                            1420900500574 
5.4087805  5.4631401  1658.1     72.32                            1420900500575 
5.4631401  5.5180460  903.28     54.64                            1420900500576 
5.5180460  5.5735038  345.66     33.20                            1420900500577 
5.5735038  5.6295189  92.913     19.54                            1420900500578 
5.6295189  5.6860970  70.666     16.21                            1420900500579 
5.6860970  5.7432437  48.652     15.92                            1420900500580 
5.7432437  5.8009647  51.608     14.15                            1420900500581 
5.8009647  5.8592659  54.189     14.83                            1420900500582 
5.8592659  5.9181530  40.994     14.78                            1420900500583 
5.9181530  5.9776319  47.140     14.34                            1420900500584 
5.9776319  6.0377086  86.634     18.51                            1420900500585 
6.0377086  6.0983891  130.80     21.93                            1420900500586 
6.0983891  6.1596794  228.35     29.33                            1420900500587 
6.1596794  6.2215858  186.56     26.39                            1420900500588 
6.2215858  6.2841143  57.658     16.12                            1420900500589 
6.2841143  6.3472712  4.7574     7.876                            1420900500590 
6.3472712  6.4110629  2.1976     9.358                            1420900500591 
6.4110629  6.4754957  30.429     11.51                            1420900500592 
6.4754957  6.5405760  29.393     12.46                            1420900500593 
6.5405760  6.6063105  36.992     13.57                            1420900500594 
6.6063105  6.6727055  19.916     12.88                            1420900500595 
6.6727055  6.7397679  15.365     10.38                            1420900500596 
6.7397679  6.8075043  84.180     18.57                            1420900500597 
6.8075043  6.8759214  32.393     12.01                            1420900500598 
6.8759214  6.9450261  43.412     14.99                            1420900500599 
6.9450261  7.0148254  16.764     10.25                            1420900500600 
7.0148254  7.0853261  5.5977     7.330                            1420900500601 
7.0853261  7.1565355  3.0652     8.846                            1420900500602 
7.1565355  7.2284604  23.603     11.74                            1420900500603 
7.2284604  7.3011083  19.625     11.39                            1420900500604 
7.3011083  7.3744862  13.500     9.127                            1420900500605 
7.3744862  7.4486017  2.8470     8.038                            1420900500606 
7.4486017  7.5234620  11.090     10.73                            1420900500607 
7.5234620  7.5990747  34.672     12.36                            1420900500608 
7.5990747  7.6754473  57.994     15.88                            1420900500609 
7.6754473  7.7525875  78.923     17.40                            1420900500610 
7.7525875  7.8305029  18.039     11.32                            1420900500611 
7.8305029  7.9092015  17.053     9.390                            1420900500612 
7.9092015  7.9886909  -2.118     7.171                            1420900500613 
7.9886909  8.0689793  19.553     10.39                            1420900500614 
8.0689793  8.1500745  66.852     16.75                            1420900500615 
8.1500745  8.2319848  115.50     19.93                            1420900500616 
8.2319848  8.3147183  121.10     22.14                            1420900500617 
8.3147183  8.3982834  26.875     11.16                            1420900500618 
8.3982834  8.4826882  12.624     8.524                            1420900500619 
8.4826882  8.5679414  10.999     8.748                            1420900500620 
8.5679414  8.6540513  41.377     13.61                            1420900500621 
8.6540513  8.7410267  22.072     10.59                            1420900500622 
8.7410267  8.8288762  21.974     9.673                            1420900500623 
8.8288762  8.9176087  54.214     14.26                            1420900500624 
8.9176087  9.0072329  95.773     20.57                            1420900500625 
9.0072329  9.0977578  139.30     22.13                            1420900500626 
9.0977578  9.1891926  400.89     37.32                            1420900500627 
9.1891926  9.2815463  168.23     25.34                            1420900500628 
9.2815463  9.3748281  38.987     13.58                            1420900500629 
9.3748281  9.4690475  29.616     11.44                            1420900500630 
9.4690475  9.5642138  24.663     10.96                            1420900500631 
9.5642138  9.6603366  49.304     15.37                            1420900500632 
9.6603366  9.7574254  80.658     17.65                            1420900500633 
9.7574254  9.8554900  217.50     26.88                            1420900500634 
9.8554900  9.9545401  365.72     35.19                            1420900500635 
9.9545401  10.054585  123.39     22.63                            1420900500636 
10.054585  10.155636  68.804     16.61                            1420900500637 
10.155636  10.257703  80.967     17.29                            1420900500638 
10.257703  10.360796  92.597     18.45                            1420900500639 
10.360796  10.464924  264.60     31.30                            1420900500640 
10.464924  10.570099  190.79     26.35                            1420900500641 
10.570099  10.676331  65.490     15.59                            1420900500642 
10.676331  10.783631  46.312     13.41                            1420900500643 
10.783631  10.892010  58.408     14.29                            1420900500644 
10.892010  11.001477  114.23     19.08                            1420900500645 
11.001477  11.112045  352.53     36.42                            1420900500646 
11.112045  11.223723  146.35     24.11                            1420900500647 
11.223723  11.336525  37.142     13.37                            1420900500648 
11.336525  11.450460  15.104     10.54                            1420900500649 
11.450460  11.565540  10.515     8.394                            1420900500650 
11.565540  11.681776  27.264     12.47                            1420900500651 
11.681776  11.799181  13.573     8.508                            1420900500652 
11.799181  11.917766  10.661     8.935                            1420900500653 
11.917766  12.037542  14.648     8.166                            1420900500654 
12.037542  12.158523  17.346     9.528                            1420900500655 
12.158523  12.280719  9.2207     7.164                            1420900500656 
12.280719  12.404143  2.3809     7.075                            1420900500657 
12.404143  12.528808  -3.455     6.001                            1420900500658 
12.528808  12.654726  7.8691     8.108                            1420900500659 
12.654726  12.781909  9.6277     7.473                            1420900500660 
12.781909  12.910370  55.733     14.38                            1420900500661 
12.910370  13.040123  92.554     19.76                            1420900500662 
13.040123  13.171179  41.218     13.49                            1420900500663 
13.171179  13.303553  15.199     8.578                            1420900500664 
13.303553  13.437257  8.8970     7.466                            1420900500665 
13.437257  13.572305  18.028     10.05                            1420900500666 
13.572305  13.708710  0.6106     4.839                            1420900500667 
13.708710  13.846486  38.506     13.83                            1420900500668 
13.846486  13.985646  28.935     10.00                            1420900500669 
13.985646  14.126206  18.202     10.64                            1420900500670 
14.126206  14.268178  59.164     14.01                            1420900500671 
14.268178  14.411576  160.69     25.53                            1420900500672 
14.411576  14.556416  177.30     23.94                            1420900500673 
14.556416  14.702712  401.39     35.38                            1420900500674 
14.702712  14.850478  984.44     54.98                            1420900500675 
14.850478  14.999729  321.93     35.45                            1420900500676 
14.999729  15.150480  32.226     10.53                            1420900500677 
15.150480  15.302746  13.000     7.756                            1420900500678 
15.302746  15.456543  9.3635     8.909                            1420900500679 
15.456543  15.611885  24.979     9.625                            1420900500680 
15.611885  15.768788  82.635     16.66                            1420900500681 
15.768788  15.927268  55.510     14.31                            1420900500682 
15.927268  16.087341  28.026     11.71                            1420900500683 
16.087341  16.249023  50.474     15.59                            1420900500684 
16.249023  16.412330  219.86     28.35                            1420900500685 
16.412330  16.577278  479.83     38.84                            1420900500686 
16.577278  16.743884  135.55     21.99                            1420900500687 
16.743884  16.912164  144.34     24.03                            1420900500688 
16.912164  17.082136  213.09     26.83                            1420900500689 
17.082136  17.253815  51.693     16.06                            1420900500690 
17.253815  17.427221  12.262     9.177                            1420900500691 
17.427221  17.602369  16.878     8.855                            1420900500692 
17.602369  17.779277  60.197     15.99                            1420900500693 
17.779277  17.957963  132.86     22.17                            1420900500694 
17.957963  18.138445  34.400     12.30                            1420900500695 
18.138445  18.320741  16.082     7.895                            1420900500696 
18.320741  18.504869  7.3189     7.524                            1420900500697 
18.504869  18.690848  11.852     7.311                            1420900500698 
18.690848  18.878695  7.5877     7.796                            1420900500699 
18.878695  19.068431  21.701     11.31                            1420900500700 
19.068431  19.260073  6.2155     7.631                            1420900500701 
19.260073  19.453642  2.3507     6.957                            1420900500702 
19.453642  19.649156  106.19     20.44                            1420900500703 
19.649156  19.846635  33.231     11.91                            1420900500704 
19.846635  20.046099  -0.442     4.513                            1420900500705 
20.046099  20.247567  11.577     8.346                            1420900500706 
20.247567  20.451060  11.081     7.304                            1420900500707 
20.451060  20.656598  -1.351     6.388                            1420900500708 
20.656598  20.864202  28.931     10.60                            1420900500709 
20.864202  21.073893  38.586     12.62                            1420900500710 
21.073893  21.285691  15.521     10.08                            1420900500711 
21.285691  21.499617  -5.292     3.537                            1420900500712 
21.499617  21.715694  1.6530     4.702                            1420900500713 
21.715694  21.933942  21.897     9.159                            1420900500714 
21.933942  22.154384  8.2852     7.864                            1420900500715 
22.154384  22.377041  21.235     8.883                            1420900500716 
22.377041  22.601936  1.3078     7.302                            1420900500717 
22.601936  22.829091  7.8735     8.631                            1420900500718 
22.829091  23.058529  50.601     13.83                            1420900500719 
23.058529  23.290273  116.04     19.61                            1420900500720 
23.290273  23.524346  99.212     17.41                            1420900500721 
23.524346  23.760772  92.171     20.61                            1420900500722 
23.760772  23.999573  20.810     8.640                            1420900500723 
23.999573  24.240775  107.19     19.28                            1420900500724 
24.240775  24.484401  259.97     29.52                            1420900500725 
24.484401  24.730475  38.550     12.59                            1420900500726 
24.730475  24.979023  4.8238     6.821                            1420900500727 
24.979023  25.230068  29.195     10.79                            1420900500728 
25.230068  25.483637  27.009     12.36                            1420900500729 
25.483637  25.739754  56.172     16.21                            1420900500730 
25.739754  25.998445  198.93     27.14                            1420900500731 
25.998445  26.259736  50.002     16.79                            1420900500732 
26.259736  26.523653  31.975     13.07                            1420900500733 
26.523653  26.790222  115.18     21.33                            1420900500734 
26.790222  27.059471  74.732     16.17                            1420900500735 
27.059471  27.331425  -4.624     5.979                            1420900500736 
27.331425  27.606113  19.337     11.71                            1420900500737 
27.606113  27.883561  55.249     14.20                            1420900500738 
27.883561  28.163798  69.825     15.50                            1420900500739 
28.163798  28.446851  27.234     11.35                            1420900500740 
28.446851  28.732749  89.925     18.42                            1420900500741 
28.732749  29.021521  44.213     13.34                            1420900500742 
29.021521  29.313194  109.54     19.90                            1420900500743 
29.313194  29.607799  81.971     17.92                            1420900500744 
29.607799  29.905365  141.59     23.09                            1420900500745 
29.905365  30.205921  36.799     11.61                            1420900500746 
30.205921  30.509499  -5.130     4.329                            1420900500747 
30.509499  30.816127  18.982     8.728                            1420900500748 
30.816127  31.125836  34.227     11.47                            1420900500749 
31.125836  31.438659  78.981     17.19                            1420900500750 
31.438659  31.754625  114.61     20.29                            1420900500751 
31.754625  32.073767  2.0116     9.146                            1420900500752 
32.073767  32.396117  24.018     9.989                            1420900500753 
32.396117  32.721706  12.341     8.099                            1420900500754 
32.721706  33.050567  1.1395     7.318                            1420900500755 
33.050567  33.382734  20.123     9.765                            1420900500756 
33.382734  33.718239  18.060     10.70                            1420900500757 
33.718239  34.057115  8.6441     6.654                            1420900500758 
34.057115  34.399398  68.437     17.17                            1420900500759 
34.399398  34.745121  40.412     11.90                            1420900500760 
34.745121  35.094318  38.890     13.03                            1420900500761 
35.094318  35.447025  55.269     15.91                            1420900500762 
35.447025  35.803276  40.394     14.38                            1420900500763 
35.803276  36.163108  62.187     16.22                            1420900500764 
35.966800  36.328200  53.604     5.973                            1420900500765 
36.328200  36.693400  104.36     7.735                            1420900500766 
36.693400  37.062100  325.61     9.684                            1420900500767 
37.062100  37.434600  51.860     8.032                            1420900500768 
37.434600  37.810800  18.442     8.041                            1420900500769 
37.810800  38.190900  102.59     8.091                            1420900500770 
38.190900  38.574700  191.25     7.739                            1420900500771 
38.574700  38.962400  29.858     5.488                            1420900500772 
38.962400  39.353900  46.381     5.441                            1420900500773 
39.353900  39.749500  142.31     7.024                            1420900500774 
39.749500  40.149000  82.593     5.048                            1420900500775 
40.149000  40.552500  102.31     6.107                            1420900500776 
40.552500  40.960000  9.2217     4.071                            1420900500777 
40.960000  41.371700  14.754     4.212                            1420900500778 
41.371700  41.787500  36.386     4.389                            1420900500779 
41.787500  42.207500  35.413     4.232                            1420900500780 
42.207500  42.631600  18.559     3.818                            1420900500781 
42.631600  43.060100  40.332     5.288                            1420900500782 
43.060100  43.492900  107.40     6.085                            1420900500783 
43.492900  43.930000  35.849     4.532                            1420900500784 
43.930000  44.371500  7.7948     3.944                            1420900500785 
44.371500  44.817400  12.894     3.568                            1420900500786 
44.817400  45.267900  8.2724     3.659                            1420900500787 
45.267900  45.722800  18.202     3.409                            1420900500788 
45.722800  46.182300  52.163     4.282                            1420900500789 
46.182300  46.646500  48.857     4.443                            1420900500790 
46.646500  47.115300  22.761     4.232                            1420900500791 
47.115300  47.588800  76.471     5.283                            1420900500792 
47.588800  48.067100  18.907     5.049                            1420900500793 
48.067100  48.550200  30.477     4.048                            1420900500794 
48.550200  49.038100  56.268     5.313                            1420900500795 
49.038100  49.531000  28.569     4.012                            1420900500796 
49.531000  50.028800  66.477     4.782                            1420900500797 
50.028800  50.531600  140.60     6.429                            1420900500798 
50.531600  51.039400  30.528     4.421                            1420900500799 
51.039400  51.552400  19.553     4.683                            1420900500800 
51.552400  52.070500  75.545     5.002                            1420900500801 
52.070500  52.593800  12.789     5.568                            1420900500802 
52.593800  53.122400  15.987     4.022                            1420900500803 
53.122400  53.656300  18.131     4.104                            1420900500804 
53.656300  54.195600  15.805     4.472                            1420900500805 
54.195600  54.740200  40.042     4.563                            1420900500806 
54.740200  55.290400  67.365     5.495                            1420900500807 
55.290400  55.846100  78.383     6.979                            1420900500808 
55.846100  56.407300  109.06     6.759                            1420900500809 
56.407300  56.974200  50.655     5.578                            1420900500810 
56.974200  57.546800  195.92     7.804                            1420900500811 
57.546800  58.125200  17.385     4.687                            1420900500812 
58.125200  58.709400  8.0600     4.657                            1420900500813 
58.709400  59.299400  26.104     4.958                            1420900500814 
59.299400  59.895400  8.6759     4.331                            1420900500815 
59.895400  60.497400  27.442     4.433                            1420900500816 
60.497400  61.105400  49.686     5.102                            1420900500817 
61.105400  61.719500  69.147     5.343                            1420900500818 
61.719500  62.339800  16.948     4.716                            1420900500819 
62.339800  62.966300  29.903     3.974                            1420900500820 
62.966300  63.599200  64.493     6.801                            1420900500821 
63.599200  64.238300  193.31     7.613                            1420900500822 
64.238300  64.884000  157.45     6.695                            1420900500823 
64.884000  65.536100  184.59     7.796                            1420900500824 
65.536100  66.194700  72.566     5.201                            1420900500825 
66.194700  66.860000  82.742     6.189                            1420900500826 
66.860000  67.531900  39.528     5.323                            1420900500827 
67.531900  68.210700  14.598     5.096                            1420900500828 
68.210700  68.896200  38.968     4.275                            1420900500829 
68.896200  69.588600  88.140     5.709                            1420900500830 
69.588600  70.288000  86.756     5.896                            1420900500831 
70.288000  70.994400  28.963     6.106                            1420900500832 
70.994400  71.707900  72.161     7.286                            1420900500833 
71.707900  72.428600  31.369     6.511                            1420900500834 
72.428600  73.156500  0.0023     0.000                            1420900500835 
73.156500  73.891800  0.0022     0.000                            1420900500836 
73.891800  74.634400  10.707     5.444                            1420900500837 
74.634400  75.384500  23.572     5.921                            1420900500838 
75.384500  76.142100  37.887     5.880                            1420900500839 
76.142100  76.907400  10.561     5.334                            1420900500840 
76.907400  77.680300  18.527     4.770                            1420900500841 
77.680300  78.461000  68.997     6.013                            1420900500842 
78.461000  79.249600  27.345     6.173                            1420900500843 
79.249600  80.046100  39.037     5.967                            1420900500844 
80.046100  80.850500  28.308     5.641                            1420900500845 
80.850500  81.663100  41.815     7.328                            1420900500846 
81.663100  82.483800  36.167     5.687                            1420900500847 
82.483800  83.312800  30.329     5.309                            1420900500848 
83.312800  84.150100  51.804     5.855                            1420900500849 
84.150100  84.995900  58.686     5.093                            1420900500850 
84.995900  85.850100  11.062     4.400                            1420900500851 
85.850100  86.712900  9.1411     4.334                            1420900500852 
86.712900  87.584400  40.864     4.647                            1420900500853 
87.584400  88.464600  78.545     6.059                            1420900500854 
88.464600  89.353700  37.916     5.214                            1420900500855 
89.353700  90.251800  46.088     4.633                            1420900500856 
90.251800  91.158800  16.021     3.393                            1420900500857 
91.158800  92.075000  20.718     3.979                            1420900500858 
92.075000  93.000400  49.698     5.615                            1420900500859 
93.000400  93.935000  101.49     5.678                            1420900500860 
93.935000  94.879100  30.132     5.182                            1420900500861 
94.879100  95.832700  92.842     7.485                            1420900500862 
95.832700  96.795800  80.048     7.952                            1420900500863 
96.795800  97.768600  7.6421     4.326                            1420900500864 
97.768600  98.751200  10.378     4.063                            1420900500865 
98.751200  99.743700  15.457     4.316                            1420900500866 
99.743700  100.74600  24.282     5.587                            1420900500867 
100.74600  101.75900  61.993     5.169                            1420900500868 
101.75900  102.78100  57.293     4.948                            1420900500869 
102.78100  103.81400  101.41     6.994                            1420900500870 
103.81400  104.85800  48.788     4.963                            1420900500871 
104.85800  105.91200  88.621     5.788                            1420900500872 
105.91200  106.97600  109.58     6.484                            1420900500873 
106.97600  108.05100  41.444     5.112                            1420900500874 
108.05100  109.13700  28.342     4.353                            1420900500875 
109.13700  110.23400  96.641     5.778                            1420900500876 
110.23400  111.34200  46.505     4.422                            1420900500877 
111.34200  112.46100  45.426     5.741                            1420900500878 
112.46100  113.59100  25.024     5.694                            1420900500879 
113.59100  114.73300  25.502     6.143                            1420900500880 
114.73300  115.88600  38.200     4.521                            1420900500881 
115.88600  117.05000  31.411     4.653                            1420900500882 
117.05000  118.22700  20.081     3.379                            1420900500883 
118.22700  119.41500  27.100     4.742                            1420900500884 
119.41500  120.61500  53.248     4.689                            1420900500885 
120.61500  121.82700  39.535     5.701                            1420900500886 
121.82700  123.05200  86.583     5.198                            1420900500887 
123.05200  124.28900  25.789     5.151                            1420900500888 
124.28900  125.53800  41.761     4.126                            1420900500889 
125.53800  126.79900  33.491     3.817                            1420900500890 
126.79900  128.07400  27.651     3.771                            1420900500891 
128.07400  129.36100  15.787     3.677                            1420900500892 
129.36100  130.66100  25.859     4.349                            1420900500893 
130.66100  131.97400  50.774     4.719                            1420900500894 
131.97400  133.30100  39.536     4.003                            1420900500895 
133.30100  134.64000  78.209     5.439                            1420900500896 
134.64000  135.99300  105.19     7.112                            1420900500897 
135.99300  137.36000  68.551     5.293                            1420900500898 
137.36000  138.74100  50.748     4.776                            1420900500899 
138.74100  140.13500  40.638     4.957                            1420900500900 
140.13500  141.54300  71.047     7.740                            1420900500901 
141.54300  142.96600  19.314     4.268                            1420900500902 
142.96600  144.40300  21.073     3.413                            1420900500903 
144.40300  145.85400  30.916     3.354                            1420900500904 
145.85400  147.32000  45.709     5.489                            1420900500905 
147.32000  148.80100  85.450     5.388                            1420900500906 
148.80100  150.29600  21.545     4.520                            1420900500907 
150.29600  154.87400  19.963     2.043                            1420900500908 
154.87400  159.59100  36.310     2.368                            1420900500909 
159.59100  164.45100  45.413     2.806                            1420900500910 
164.45100  169.46000  29.250     2.332                            1420900500911 
169.46000  174.62100  15.686     2.220                            1420900500912 
174.62100  179.94000  21.822     2.231                            1420900500913 
179.94000  185.42000  34.923     2.689                            1420900500914 
185.42000  191.06700  27.270     2.316                            1420900500915 
191.06700  196.88700  35.523     3.091                            1420900500916 
196.88700  202.88300  27.037     2.686                            1420900500917 
202.88300  209.06200  31.160     2.290                            1420900500918 
209.06200  215.43000  39.468     2.262                            1420900500919 
215.43000  221.99100  20.718     2.626                            1420900500920 
221.99100  228.75200  28.084     2.321                            1420900500921 
228.75200  235.71900  23.961     2.268                            1420900500922 
235.71900  242.89800  19.040     2.450                            1420900500923 
242.89800  250.29600  14.396     2.699                            1420900500924 
250.29600  257.92000  28.485     2.630                            1420900500925 
257.92000  265.77500  27.704     2.144                            1420900500926 
265.77500  273.87000  24.092     2.466                            1420900500927 
273.87000  282.21100  23.335     2.398                            1420900500928 
282.21100  290.80600  31.455     2.657                            1420900500929 
290.80600  299.66300  24.417     2.617                            1420900500930 
299.66300  308.79000  24.395     2.109                            1420900500931 
308.79000  318.19500  21.779     2.511                            1420900500932 
318.19500  327.88600  20.820     2.320                            1420900500933 
327.88600  337.87200  14.293     3.345                            1420900500934 
337.87200  348.16300  28.635     2.882                            1420900500935 
348.16300  358.76700  21.628     2.661                            1420900500936 
358.76700  369.69400  32.697     2.442                            1420900500937 
369.69400  380.95300  17.275     2.135                            1420900500938 
380.95300  392.55600  20.990     2.396                            1420900500939 
392.55600  404.51200  19.081     2.255                            1420900500940 
404.51200  416.83200  13.901     1.852                            1420900500941 
416.83200  429.52800  25.856     2.203                            1420900500942 
429.52800  442.61000  19.343     2.198                            1420900500943 
442.61000  456.09000  23.662     2.437                            1420900500944 
456.09000  469.98100  24.078     2.342                            1420900500945 
469.98100  484.29500  20.063     1.965                            1420900500946 
484.29500  499.04600  17.927     2.174                            1420900500947 
499.04600  514.24500  12.304     2.263                            1420900500948 
514.24500  529.90700  14.775     2.526                            1420900500949 
529.90700  546.04700  14.439     2.622                            1420900500950 
546.04700  562.67700  12.097     1.923                            1420900500951 
562.67700  579.81500  16.189     2.090                            1420900500952 
579.81500  597.47400  17.751     2.344                            1420900500953 
597.47400  615.67100  19.734     1.890                            1420900500954 
615.67100  634.42300  13.471     2.362                            1420900500955 
634.42300  653.74500  12.457     2.655                            1420900500956 
653.74500  673.65600  16.102     2.265                            1420900500957 
673.65600  694.17400  17.195     2.221                            1420900500958 
694.17400  715.31600  11.079     2.354                            1420900500959 
715.31600  737.10200  5.8259     2.815                            1420900500960 
737.10200  759.55200  12.366     1.912                            1420900500961 
759.55200  782.68600  14.053     2.002                            1420900500962 
782.68600  806.52400  16.845     1.867                            1420900500963 
806.52400  831.08800  10.110     2.242                            1420900500964 
831.08800  856.40000  9.0299     2.138                            1420900500965 
856.40000  882.48400  12.133     2.510                            1420900500966 
882.48400  909.36100  8.3916     1.996                            1420900500967 
909.36100  937.05800  10.882     1.809                            1420900500968 
937.05800  965.59700  10.173     2.204                            1420900500969 
965.59700  995.00600  14.200     1.550                            1420900500970 
995.00600  1025.3100   10.85     1.720                            1420900500971 
1025.3100  1253.1600   11.00     0.741                            1420900500972 
1253.1600  1531.6400   9.886     0.738                            1420900500973 
1531.6400  1872.0000   8.517     0.635                            1420900500974 
1872.0000  2288.0000   8.349     0.688                            1420900500975 
2288.0000  2796.4500   8.398     0.659                            1420900500976 
2796.4500  3417.8800   6.454     0.688                            1420900500977 
3417.8800  4177.4100   5.206     0.701                            1420900500978 
4177.4100  5105.7200   6.065     0.632                            1420900500979 
5105.7200  6240.3300   4.286     0.659                            1420900500980 
6240.3300  7627.0600   4.695     0.594                            1420900500981 
7627.0600  9321.9700   3.960     0.670                            1420900500982 
9321.9700  11393.500   2.962     0.665                            1420900500983 
11393.500  13925.400   3.072     0.729                            1420900500984 
13925.400  17019.900   3.334     0.665                            1420900500985 
17019.900  20802.200   3.212     0.660                            1420900500986 
20802.200  25424.900   2.903     0.587                            1420900500987 
25424.900  31074.800   2.801     0.473                            1420900500988 
31074.800  37980.300   2.014     0.995                            1420900500989 
46420.400  56736.100   1.713     0.678                            1420900500990 
56736.100  69344.100   1.579     0.553                            1420900500991 
69344.100  84753.900   1.608     0.591                            1420900500992 
84753.900  103588.00   1.364     0.792                            1420900500993 
103588.00  126608.00   1.668     0.622                            1420900500994 
126608.00  154743.00   1.444     0.655                            1420900500995 
189130.00  231159.00   1.162     0.569                            1420900500996 
231159.00  282527.00   1.200     0.524                            1420900500997 
282527.00  345311.00   1.154     0.437                            1420900500998 
ENDDATA            986          0                                 1420900500999 
ENDSUBENT          998          0                                 1420900599999 
ENDENTRY             5          0                                 1420999999999 
