ENTRY            14289   20111110                             13771428900000001 
SUBENT        14289001   20111110                             13771428900100001 
BIB                 10         23                                 1428900100002 
TITLE      A measurement of the change of the energy dependence   1428900100003 
           of the total cross-section of phase II solid methane   1428900100004 
           from confinement in aerogel glass                      1428900100005 
AUTHOR     (H.Yan,D.V.Baxter,C.Y.Jiang,H.Kaiser,Y.C.Shin,         1428900100006 
           W.M.Snow,X.Tong)                                       1428900100007 
INSTITUTE  (1USAINU)                                              1428900100008 
REFERENCE  (J,NIM/B,269,425,2011)                                 1428900100009 
FACILITY   (LINAC,1USAINU) The transmission measurement was done  1428900100010 
           on the SANS beamline at Low Energy Neutron Source      1428900100011 
            (LENS) at Indiana University.                         1428900100012 
DETECTOR   Detector type not specified. Two identical monitors    1428900100013 
           with the sample between them were used for the         1428900100014 
           measurement.                                           1428900100015 
METHOD     (TRN,TOF) Transmission method used for total cross     1428900100016 
           section measurement. Time of flight was used for       1428900100017 
           neutron energy determination.                          1428900100018 
INC-SOURCE (P-BE) 12 MeV high-current and variable pulse width    1428900100019 
           linear accelerator with Be target. Neutrons are        1428900100020 
           moderated using a solid methane moderator.             1428900100021 
ERR-ANALYS (DATA-ERR) No information given. Relative error of     1428900100022 
           total cross section is few tenths of a percent.        1428900100023 
HISTORY    (20110412C) Compiled by S.H.                           1428900100024 
           (20111107U) Typogr. corr. in subs.2,3                  1428900100025 
ENDBIB              23          0                                 1428900100026 
NOCOMMON             0          0                                 1428900100027 
ENDSUBENT           26          0                                 1428900199999 
SUBENT        14289002   20111110                             13771428900200001 
BIB                  4          8                                 1428900200002 
REACTION   (1-H-MTH(N,TOT),,SIG/TMP) Methane sample was used      1428900200003 
STATUS     (CURVE) Data taken from fig. 5 of the reference.       1428900200004 
                   Waiting for data from author.                  1428900200005 
SAMPLE     Solid methane target contained in an aluminum cell with1428900200006 
           dimensions of 10cm x 12.4cm x 0.22 cm. Entrance and    1428900200007 
           exit windows were 0.5mm thick. Target was kept at      1428900200008 
           stable low temperature by a refrigerator and heater.   1428900200009 
HISTORY    (20111107U) Spelling corr.                             1428900200010 
ENDBIB               8          0                                 1428900200011 
COMMON               1          3                                 1428900200012 
TEMP                                                              1428900200013 
K                                                                 1428900200014 
7.0                                                               1428900200015 
ENDCOMMON            3          0                                 1428900200016 
DATA                 3         82                                 1428900200017 
EN         DATA       DATA-ERR                                    1428900200018 
MILLI-EV   B          B                                           1428900200019 
  3.096E-01   366.6       88.4                                    1428900200020 
  3.288E-01   320.1       63.2                                    1428900200021 
  3.491E-01   445.3      104.2                                    1428900200022 
  3.732E-01   360.1       62.9                                    1428900200023 
  3.964E-01   389.1       64.9                                    1428900200024 
  4.255E-01   442.2       73.4                                    1428900200025 
  4.573E-01   384.2       50.0                                    1428900200026 
  4.915E-01   398.3       48.6                                    1428900200027 
  5.282E-01   392.8       42.3                                    1428900200028 
  5.677E-01   367.1       33.7                                    1428900200029 
  6.151E-01   370.4       30.1                                    1428900200030 
  6.690E-01   367.9       26.0                                    1428900200031 
  7.336E-01   360.2       22.1                                    1428900200032 
  8.044E-01   370.7       20.4                                    1428900200033 
  8.820E-01   353.8       16.6                                    1428900200034 
  9.788E-01   349.7       16.8                                    1428900200035 
  9.986E-01   316.5       16.8                                    1428900200036 
  1.051E+00   327.5       16.7                                    1428900200037 
  1.099E+00   338.6       16.3                                    1428900200038 
  1.149E+00   331.7       14.1                                    1428900200039 
  1.215E+00   319.6       13.8                                    1428900200040 
  1.280E+00   322.9       12.7                                    1428900200041 
  1.359E+00   322.3       11.9                                    1428900200042 
  1.432E+00   307.7        9.7                                    1428900200043 
  1.521E+00   312.4       10.5                                    1428900200044 
  1.621E+00   310.5        8.6                                    1428900200045 
  1.722E+00   304.4        8.3                                    1428900200046 
  1.828E+00   300.8        8.0                                    1428900200047 
  1.949E+00   289.2        6.9                                    1428900200048 
  2.095E+00   289.2        6.9                                    1428900200049 
  2.225E+00   289.8        5.8                                    1428900200050 
  2.410E+00   274.8        5.2                                    1428900200051 
  2.601E+00   273.2        5.5                                    1428900200052 
  2.784E+00   264.9        4.1                                    1428900200053 
  3.039E+00   261.6        5.0                                    1428900200054 
  3.337E+00   256.6        4.6                                    1428900200055 
  3.612E+00   251.1        4.1                                    1428900200056 
  3.929E+00   240.9        3.9                                    1428900200057 
  4.343E+00   238.1        3.9                                    1428900200058 
  4.801E+00   228.5        3.3                                    1428900200059 
  5.370E+00   225.2        3.0                                    1428900200060 
  5.967E+00   221.6        3.1                                    1428900200061 
  6.775E+00   214.2        3.2                                    1428900200062 
  7.640E+00   210.8        2.8                                    1428900200063 
  8.825E+00   208.6        2.8                                    1428900200064 
  1.018E+01   205.5        2.7                                    1428900200065 
  1.187E+01   200.4        2.3                                    1428900200066 
  1.412E+01   198.1        2.5                                    1428900200067 
  1.692E+01   194.4        2.4                                    1428900200068 
  1.904E+01   183.5        4.7                                    1428900200069 
  1.972E+01   188.5        5.8                                    1428900200070 
  2.071E+01   190.4        4.1                                    1428900200071 
  2.151E+01   188.0        4.3                                    1428900200072 
  2.262E+01   185.4        4.1                                    1428900200073 
  2.354E+01   189.3        4.4                                    1428900200074 
  2.500E+01   185.1        5.2                                    1428900200075 
  2.582E+01   178.2        5.5                                    1428900200076 
  2.731E+01   176.8        6.4                                    1428900200077 
  2.877E+01   178.5        5.0                                    1428900200078 
  3.029E+01   172.6        5.7                                    1428900200079 
  3.186E+01   171.4        5.1                                    1428900200080 
  3.363E+01   168.3        5.0                                    1428900200081 
  3.557E+01   172.1        5.2                                    1428900200082 
  3.762E+01   174.9        6.6                                    1428900200083 
  3.995E+01   169.1        4.7                                    1428900200084 
  4.241E+01   164.9        6.0                                    1428900200085 
  4.536E+01   162.9        5.2                                    1428900200086 
  4.861E+01   159.7        5.5                                    1428900200087 
  5.162E+01   160.5        5.8                                    1428900200088 
  5.526E+01   157.2        6.6                                    1428900200089 
  5.963E+01   156.4        5.5                                    1428900200090 
  6.423E+01   154.4        6.9                                    1428900200091 
  6.943E+01   148.9        5.8                                    1428900200092 
  7.474E+01   149.4        6.5                                    1428900200093 
  8.182E+01   147.8        5.5                                    1428900200094 
  8.893E+01   145.2        7.3                                    1428900200095 
  9.759E+01   137.9        5.8                                    1428900200096 
  1.070E+02   136.2        6.1                                    1428900200097 
  1.183E+02   132.1        6.6                                    1428900200098 
  1.313E+02   129.3        7.5                                    1428900200099 
  1.468E+02   120.8        6.6                                    1428900200100 
  1.663E+02   112.8        6.4                                    1428900200101 
ENDDATA             84          0                                 1428900200102 
ENDSUBENT          101          0                                 1428900299999 
SUBENT        14289003   20111110                             13771428900300001 
BIB                  4         10                                 1428900300002 
REACTION   (1-H-MTH(N,TOT),,SIG/TMP) Methane sample was used      1428900300003 
STATUS     (CURVE) Data taken from fig. 6 of the reference.       1428900300004 
                   Waiting for data from author.                  1428900300005 
SAMPLE     Solid methane target contained in an aluminum cell with1428900300006 
           dimensions of 10cm x 12.4cm x 0.22 cm. Entrance and    1428900300007 
           exit windows were 0.5mm thick. Target was kept at      1428900300008 
           stable low temperature by a refrigerator and heater.   1428900300009 
           Solid methane was confined in silica aerogel, which    1428900300010 
           represent approximately 1% volume of the target.       1428900300011 
HISTORY    (20111107U) Spelling corr.                             1428900300012 
ENDBIB              10          0                                 1428900300013 
COMMON               1          3                                 1428900300014 
TEMP                                                              1428900300015 
K                                                                 1428900300016 
5.0                                                               1428900300017 
ENDCOMMON            3          0                                 1428900300018 
DATA                 3         82                                 1428900300019 
EN         DATA       DATA-ERR                                    1428900300020 
MILLI-EV   B          B                                           1428900300021 
  3.120E-01   597.2       95.1                                    1428900300022 
  3.317E-01   507.6       65.1                                    1428900300023 
  3.528E-01   571.5       67.9                                    1428900300024 
  3.751E-01   557.7       59.2                                    1428900300025 
  4.022E-01   519.8       49.7                                    1428900300026 
  4.277E-01   525.0       44.6                                    1428900300027 
  4.585E-01   543.5       42.6                                    1428900300028 
  4.916E-01   571.1       41.1                                    1428900300029 
  5.336E-01   507.6       29.6                                    1428900300030 
  5.721E-01   513.9       26.5                                    1428900300031 
  6.209E-01   518.6       24.9                                    1428900300032 
  6.748E-01   492.0       20.7                                    1428900300033 
  7.383E-01   505.9       18.8                                    1428900300034 
  8.077E-01   501.8       16.3                                    1428900300035 
  8.890E-01   481.0       14.1                                    1428900300036 
  9.784E-01   471.7       12.6                                    1428900300037 
  1.011E+00   461.4       14.6                                    1428900300038 
  1.053E+00   458.6       14.6                                    1428900300039 
  1.106E+00   434.9       13.4                                    1428900300040 
  1.164E+00   435.4       11.9                                    1428900300041 
  1.221E+00   430.2       11.4                                    1428900300042 
  1.287E+00   438.9       12.6                                    1428900300043 
  1.369E+00   425.0       11.4                                    1428900300044 
  1.444E+00   416.4        9.5                                    1428900300045 
  1.535E+00   416.4        9.5                                    1428900300046 
  1.626E+00   397.8        7.5                                    1428900300047 
  1.739E+00   396.2        7.8                                    1428900300048 
  1.847E+00   397.3        6.6                                    1428900300049 
  1.971E+00   375.3        6.3                                    1428900300050 
  2.096E+00   371.8        6.7                                    1428900300051 
  2.257E+00   361.5        5.5                                    1428900300052 
  2.419E+00   349.4        6.1                                    1428900300053 
  2.605E+00   337.8        5.5                                    1428900300054 
  2.815E+00   336.2        3.9                                    1428900300055 
  3.056E+00   322.9        4.8                                    1428900300056 
  3.344E+00   314.9        5.5                                    1428900300057 
  3.630E+00   299.9        4.3                                    1428900300058 
  3.972E+00   290.8        3.9                                    1428900300059 
  4.400E+00   277.8        3.6                                    1428900300060 
  4.855E+00   277.4        3.6                                    1428900300061 
  5.423E+00   262.0        3.2                                    1428900300062 
  6.057E+00   256.1        3.9                                    1428900300063 
  6.821E+00   250.6        2.8                                    1428900300064 
  7.745E+00   244.3        3.2                                    1428900300065 
  8.866E+00   242.7        2.4                                    1428900300066 
  1.027E+01   236.4        3.2                                    1428900300067 
  1.205E+01   229.6        2.4                                    1428900300068 
  1.420E+01   223.7        3.2                                    1428900300069 
  1.722E+01   216.6        2.8                                    1428900300070 
  1.908E+01   215.5        6.0                                    1428900300071 
  2.003E+01   213.1        6.7                                    1428900300072 
  2.122E+01   207.5        1.6                                    1428900300073 
  2.183E+01   214.6        5.1                                    1428900300074 
  2.293E+01   212.3        5.5                                    1428900300075 
  2.389E+01   211.1        5.9                                    1428900300076 
  2.530E+01   213.1        5.9                                    1428900300077 
  2.636E+01   205.6        5.9                                    1428900300078 
  2.769E+01   199.6        5.5                                    1428900300079 
  2.897E+01   193.7        5.9                                    1428900300080 
  3.055E+01   188.6        5.5                                    1428900300081 
  3.235E+01   190.6        5.5                                    1428900300082 
  3.398E+01   181.9        5.5                                    1428900300083 
  3.599E+01   186.2        5.5                                    1428900300084 
  3.812E+01   191.0        5.5                                    1428900300085 
  4.070E+01   190.2        5.5                                    1428900300086 
  4.292E+01   179.1        5.9                                    1428900300087 
  4.583E+01   175.6        6.3                                    1428900300088 
  4.914E+01   170.8        5.9                                    1428900300089 
  5.247E+01   171.2        6.3                                    1428900300090 
  5.625E+01   170.8        5.9                                    1428900300091 
  6.006E+01   163.7        6.3                                    1428900300092 
  6.439E+01   162.5        7.1                                    1428900300093 
  6.989E+01   159.8        6.7                                    1428900300094 
  7.586E+01   154.6        7.1                                    1428900300095 
  8.234E+01   140.4        6.7                                    1428900300096 
  9.010E+01   135.3        6.3                                    1428900300097 
  9.860E+01   136.5        6.7                                    1428900300098 
  1.092E+02   135.3        6.7                                    1428900300099 
  1.205E+02   127.8        6.7                                    1428900300100 
  1.341E+02   124.2        7.5                                    1428900300101 
  1.497E+02   117.1        7.1                                    1428900300102 
  1.686E+02   107.3        7.1                                    1428900300103 
ENDDATA             84          0                                 1428900300104 
ENDSUBENT          103          0                                 1428900399999 
ENDENTRY             3          0                                 1428999999999 
