ENTRY            22594   20010202                             00002259400000001 
SUBENT        22594001   20010202                             00002259400100001 
BIB                 12         17                                 2259400100002 
INSTITUTE  (2UK HAR,2AUSPVI)                                      2259400100003 
REFERENCE  (C,76LOWELL,2,1257,197607)                             2259400100004 
AUTHOR     (H.P.AXMANN)                                           2259400100005 
TITLE      Spin Determination of Er-167 S-Wave Neutron Resonances 2259400100006 
            From Low Energy Gamma-Ray Measurements                2259400100007 
FACILITY   (LINAC,2UK HAR)                                        2259400100008 
SAMPLE     200-Gm of Er(2)O(3) Powder Enriched to 87.2-Percent    2259400100009 
            Er-167. Powder Contained in Aluminum can.             2259400100010 
DETECTOR   (GELI) 50 Cm**3 Coaxial Detector, Shielded with Lead,  2259400100011 
            Polyethylene, and Lih.                                2259400100012 
METHOD     (TOF) Time of Flight with 35-Meter Path Length         2259400100013 
CORRECTION Corrected For Gamma Background Below 300-EV.           2259400100014 
ERR-ANALYS Large Statistical Errors in Data Above 300-EV          2259400100015 
STATUS     Data Received by NNDC in Private Comm., Axmann, 81/12. 2259400100016 
HISTORY    (19811214C)                                            2259400100017 
           (19991217T)  Converted by S.M.                         2259400100018 
           (20010202U) Last checking has been done.               2259400100019 
ENDBIB              17          0                                 2259400100020 
NOCOMMON             0          0                                 2259400100021 
ENDSUBENT           20          0                                 2259400199999 
SUBENT        22594002   20010202                             00002259400200001 
BIB                  3          5                                 2259400200002 
REACTION   (68-ER-167(N,0),,J)                                    2259400200003 
FLAG       (1.) Value is Estimated.                               2259400200004 
           (2.) Value is Best Estimate from Possible Assignments. 2259400200005 
HISTORY    (19991217T)  Converted from Subent 67022002            2259400200006 
           (20010202U) Last checking has been done.               2259400200007 
ENDBIB               5          0                                 2259400200008 
NOCOMMON             0          0                                 2259400200009 
DATA                 3         82                                 2259400200010 
EN-RES     DATA       FLAG                                        2259400200011 
EV         NO-DIM     NO-DIM                                      2259400200012 
  2.026E+01         4.                                            2259400200013 
  2.205E+01         3.                                            2259400200014 
  2.605E+01         3.                                            2259400200015 
  2.744E+01         4.                                            2259400200016 
  3.290E+01         4.                                            2259400200017 
  3.770E+01         4.                                            2259400200018 
  3.948E+01         3.                                            2259400200019 
  4.230E+01         3.                                            2259400200020 
  5.030E+01         4.                                            2259400200021 
  5.365E+01         4.                                            2259400200022 
  5.960E+01         3.                                            2259400200023 
  6.198E+01         4.                                            2259400200024 
  6.261E+01         3.                                            2259400200025 
  6.931E+01         4.                                            2259400200026 
  7.482E+01         4.                                            2259400200027 
  7.560E+01         3.         1.                                 2259400200028 
  7.907E+01         3.                                            2259400200029 
  8.523E+01         3.                                            2259400200030 
  9.103E+01         4.                                            2259400200031 
  9.464E+01         4.                                            2259400200032 
 1.0734E+02         3.                                            2259400200033 
 1.1260E+02         4.                                            2259400200034 
 1.1532E+02         3.                                            2259400200035 
 1.2783E+02         3.                                            2259400200036 
 1.3128E+02         4.                                            2259400200037 
  1.418E+02         4.                                            2259400200038 
  1.421E+02         4.                                            2259400200039 
  1.575E+02         3.                                            2259400200040 
  1.589E+02         4.                                            2259400200041 
  1.620E+02         4.                                            2259400200042 
  1.649E+02         4.                                            2259400200043 
  1.665E+02         3.                                            2259400200044 
  1.683E+02         3.                                            2259400200045 
  1.765E+02         3.         2.                                 2259400200046 
  1.783E+02         4.                                            2259400200047 
  1.842E+02         4.                                            2259400200048 
  1.911E+02         4.                                            2259400200049 
  1.956E+02         3.                                            2259400200050 
  2.097E+02         3.                                            2259400200051 
  2.170E+02         4.                                            2259400200052 
  2.229E+02         3.                                            2259400200053 
  2.283E+02         4.         1.                                 2259400200054 
  2.296E+02         4.         1.                                 2259400200055 
  2.351E+02         3.                                            2259400200056 
  2.378E+02         4.                                            2259400200057 
  2.470E+02         3.                                            2259400200058 
  2.486E+02         3.         1.                                 2259400200059 
  2.576E+02         4.                                            2259400200060 
  2.630E+02         4.                                            2259400200061 
  2.742E+02         3.                                            2259400200062 
  2.796E+02         3.                                            2259400200063 
  2.818E+02         4.                                            2259400200064 
  3.091E+02         3.                                            2259400200065 
  3.125E+02         3.                                            2259400200066 
  3.149E+02         3.                                            2259400200067 
  3.191E+02         4.         1.                                 2259400200068 
  3.264E+02         4.                                            2259400200069 
  3.309E+02         3.                                            2259400200070 
  3.348E+02         4.                                            2259400200071 
  3.428E+02         4.         2.                                 2259400200072 
  3.489E+02         4.         1.                                 2259400200073 
  3.632E+02         4.                                            2259400200074 
  3.676E+02         4.                                            2259400200075 
  3.729E+02         4.         1.                                 2259400200076 
  3.760E+02         4.         1.                                 2259400200077 
  3.815E+02         3.                                            2259400200078 
  3.871E+02         3.                                            2259400200079 
  3.995E+02         3.                                            2259400200080 
  4.077E+02         4.         1.                                 2259400200081 
  4.112E+02         4.         1.                                 2259400200082 
  4.193E+02         4.                                            2259400200083 
  4.216E+02         4.         2.                                 2259400200084 
  4.291E+02         3.                                            2259400200085 
  4.416E+02         3.                                            2259400200086 
  4.460E+02         3.                                            2259400200087 
  4.558E+02         3.         1.                                 2259400200088 
  4.663E+02         3.         2.                                 2259400200089 
  4.740E+02         3.                                            2259400200090 
  4.800E+02         3.                                            2259400200091 
  4.850E+02         4.                                            2259400200092 
  4.978E+02         4.                                            2259400200093 
  5.061E+02         4.                                            2259400200094 
ENDDATA             84          0                                 2259400200095 
ENDSUBENT           94          0                                 2259400299999 
ENDENTRY             2          0                                 2259499999999 
