ENTRY            22725   20050225                             21712272500000001 
SUBENT        22725001   20050225                             21712272500100001 
BIB                 13         44                                 2272500100002 
TITLE       .Measurement of neutron total cross-sections of Dy    2272500100003 
            and Hf in the energy range 0.002 to 100 keV           2272500100004 
AUTHOR     (H.J.CHO,K.KOBAYASHI,S.YAMAMOTO,Y.FUJITA, Y.LEE,       2272500100005 
           G.KIM, I.S.KO, M.-H.CHO,W.NAMKUNG, S.K.KO)             2272500100006 
INSTITUTE  (2JPNKTO)  H.Cho, K.Kobayashi, S.Yamamoto, Y.Fujita,   2272500100007 
           (3KORPUE)  Y.Lee, G.Kim, I.S.Ko, M.-H.Cho, W.Namkung   2272500100008 
           (3KORULS)  S.K.Ko                                      2272500100009 
REFERENCE  (J,ANE,27,1259,2000)  Main reference, Graphs are given 2272500100010 
FACILITY   (LINAC,2JPNKTO)  46 MeV electron linear accelerator    2272500100011 
            of the Research Reactor Institute, Kyoto University   2272500100012 
           - KURRI. Operated in two different modes - one for     2272500100013 
           thermal region without cadmium sheet with repetition   2272500100014 
           rate 25Hz, pulse width 3 microsec, peak current 200    2272500100015 
           milli-A, and the other for higher energy region with   2272500100016 
           cadmium sheet, repetition rate 100 Hz, pulse width     2272500100017 
           22 nanosec, peak current 1 amp. Electron energy in     2272500100018 
           both modes 30 MeV                                      2272500100019 
INC-SOURCE (PHOTO)  Tantalum target consisting of 12 Ta plates    2272500100020 
             5 cm diam, 3 cm thick set at the center of an        2272500100021 
             octagonal water tank, to moderate fast neutrons      2272500100022 
INC-SPECT  .A set of notch filters of Co, Ag, Mn and Cd were      2272500100023 
            mounted in front of the sample changer - for the      2272500100024 
            background measurement and energy calibration         2272500100025 
METHOD     (TOF)  Flight path is 22.1 m at the angle 90 degree    2272500100026 
                  relative to electron beam                       2272500100027 
DETECTOR   (SCIN)  Li-6 glass scintillation counter 12.7 cm       2272500100028 
            diameter, 1.27 cm thick, mounted on EMI-9618/R        2272500100029 
            photomultiplier - for neutron detection.              2272500100030 
           (PROPC) BF3 counter for neutron flux determination     2272500100031 
CORRECTION .Corrections were made for -                           2272500100032 
            -Dead time of the time analyser,                      2272500100033 
            -Attenuation of the neutron beam die to the thickness 2272500100034 
             of the samples,                                      2272500100035 
            -Impurity elements Ta and Al                          2272500100036 
MONITOR    (5-B-10(N,A)3-LI-7,,SIG)                               2272500100037 
ERR-ANALYS (ERR-T)   Max Total error                              2272500100038 
           (ERR-S)   Statistical error                            2272500100039 
           (ERR-SYS) Max systematic error                         2272500100040 
           (ERR-1)   Min systematic error                         2272500100041 
           (ERR-2)   Max error due to geometrical factor for the  2272500100042 
                     samples                                      2272500100043 
           (ERR-3)   Max error due to detector efficiency         2272500100044 
           (ERR-4)   Min error due to detector efficiency         2272500100045 
HISTORY    (20050225C)   SM                                       2272500100046 
ENDBIB              44          0                                 2272500100047 
COMMON               6          3                                 2272500100048 
ERR-T      ERR-SYS    ERR-1      ERR-2      ERR-3      ERR-4      2272500100049 
PER-CENT   PER-CENT   PER-CENT   PER-CENT   PER-CENT   PER-CENT   2272500100050 
   3.0        1.0        0.5         0.1      1.98       1.85     2272500100051 
ENDCOMMON            3          0                                 2272500100052 
ENDSUBENT           51          0                                 2272500199999 
SUBENT        22725002   20050225                             21712272500200001 
BIB                  4         11                                 2272500200002 
REACTION   (66-DY-0(N,TOT),,SIG)                                  2272500200003 
SAMPLE     .Three metal transmission samples wer placed at the    2272500200004 
            midpoint of the flight path and were cycled into      2272500200005 
            the neutron beam by an automatic sample changer       2272500200006 
            with four sample positions.                           2272500200007 
           .Purity of all samples were 99.9%, size 5.0 x 5.0 cm2, 2272500200008 
            Thicknesses - 1st 0.50 mm = 1.584 atoms/kb,           2272500200009 
                          2nd 3.00 mm = 9.506 atoms/kb,           2272500200010 
                          3d  5.00 mm =15.843 atoms/kb,           2272500200011 
ERR-ANALYS (ERR-5) Min statistical error                          2272500200012 
STATUS     (TABLE) Delivered by INTERNET from authors             2272500200013 
ENDBIB              11          0                                 2272500200014 
COMMON               1          3                                 2272500200015 
ERR-5                                                             2272500200016 
PER-CENT                                                          2272500200017 
   0.65                                                           2272500200018 
ENDCOMMON            3          0                                 2272500200019 
DATA                 3        309                                 2272500200020 
EN         DATA       ERR-S                                       2272500200021 
EV         B          B                                           2272500200022 
     0.0020  3560.8482    85.6873                                 2272500200023 
     0.0021  3426.9598    80.0523                                 2272500200024 
     0.0022  3291.1866    66.9208                                 2272500200025 
     0.0024  3131.5958    77.0630                                 2272500200026 
     0.0025  3016.4954    73.2988                                 2272500200027 
     0.0027  2908.8107    64.0287                                 2272500200028 
     0.0028  2879.4497    53.8335                                 2272500200029 
     0.0030  2806.4053    54.9860                                 2272500200030 
     0.0032  2716.1385    42.9606                                 2272500200031 
     0.0033  2751.3966    59.3843                                 2272500200032 
     0.0035  2687.3828    53.3359                                 2272500200033 
     0.0038  2617.2959    52.0814                                 2272500200034 
     0.0040  2501.4076    49.3785                                 2272500200035 
     0.0042  2399.1562    40.0999                                 2272500200036 
     0.0045  2297.0131    55.1110                                 2272500200037 
     0.0047  2104.3388    70.1167                                 2272500200038 
     0.0050  2200.1197    48.0563                                 2272500200039 
     0.0053  2154.6058    53.4236                                 2272500200040 
     0.0056  2140.4688    61.9501                                 2272500200041 
     0.0060  2113.1120    46.9543                                 2272500200042 
     0.0063  1985.6210    38.4725                                 2272500200043 
     0.0067  1966.1419    55.5301                                 2272500200044 
     0.0071  1957.2833    54.3336                                 2272500200045 
     0.0075  1937.9555    50.7928                                 2272500200046 
     0.0079  1864.4044    38.3451                                 2272500200047 
     0.0084  1836.8812    38.4996                                 2272500200048 
     0.0089  1769.8147    37.0956                                 2272500200049 
     0.0094  1716.3549    34.7985                                 2272500200050 
     0.0100  1683.7417    29.2535                                 2272500200051 
     0.0106  1627.7454    27.1398                                 2272500200052 
     0.0112  1592.5855    24.1914                                 2272500200053 
     0.0119  1552.2796    21.5540                                 2272500200054 
     0.0126  1549.2460    20.7249                                 2272500200055 
     0.0133  1484.1671    17.6854                                 2272500200056 
     0.0141  1444.2006    16.4107                                 2272500200057 
     0.0150  1392.1351    15.1658                                 2272500200058 
     0.0158  1355.8853    14.0167                                 2272500200059 
     0.0168  1328.1789    13.0520                                 2272500200060 
     0.0178  1294.8804    11.8986                                 2272500200061 
     0.0188  1251.0504    10.8595                                 2272500200062 
     0.0200  1224.3829    10.1183                                 2272500200063 
     0.0211  1189.9746     9.3230                                 2272500200064 
     0.0224  1157.9628     8.5933                                 2272500200065 
     0.0237  1117.6362     7.9418                                 2272500200066 
     0.0251  1080.9609     7.3455                                 2272500200067 
     0.0266  1061.7430     6.8476                                 2272500200068 
     0.0282  1032.4586     6.3315                                 2272500200069 
     0.0299  1005.6172     5.9456                                 2272500200070 
     0.0316   974.1288     5.5715                                 2272500200071 
     0.0335   944.5854     5.2283                                 2272500200072 
     0.0355   918.3979     4.9232                                 2272500200073 
     0.0376   895.9044     4.6304                                 2272500200074 
     0.0398   866.3829     4.3527                                 2272500200075 
     0.0422   835.7219     4.1088                                 2272500200076 
     0.0447   816.1195     3.9278                                 2272500200077 
     0.0473   788.3532     3.7344                                 2272500200078 
     0.0501   773.7312     3.5965                                 2272500200079 
     0.0531   752.1974     3.4528                                 2272500200080 
     0.0562   726.0797     3.3188                                 2272500200081 
     0.0596   706.3510     3.2141                                 2272500200082 
     0.0631   683.5334     3.1190                                 2272500200083 
     0.0668   667.6722     3.0547                                 2272500200084 
     0.0708   651.0146     2.9993                                 2272500200085 
     0.0750   632.4778     2.9505                                 2272500200086 
     0.0794   606.5031     2.9117                                 2272500200087 
     0.0841   593.6347     2.9052                                 2272500200088 
     0.0891   577.0138     2.9146                                 2272500200089 
     0.0944   557.5233     2.9217                                 2272500200090 
     0.1000   543.3255     2.9635                                 2272500200091 
     0.1059   525.3841     3.0134                                 2272500200092 
     0.1122   508.9386     3.0718                                 2272500200093 
     0.1189   496.0616     3.1569                                 2272500200094 
     0.1259   482.4661     3.2657                                 2272500200095 
     0.1334   461.6198     3.3704                                 2272500200096 
     0.1413   453.6037     3.5208                                 2272500200097 
     0.1496   440.5643     3.6611                                 2272500200098 
     0.1585   421.7205     3.8274                                 2272500200099 
     0.1679   416.5112     4.0011                                 2272500200100 
     0.1778   400.5608     4.1903                                 2272500200101 
     0.1884   389.6380     4.3484                                 2272500200102 
     0.1995   373.3974     4.5013                                 2272500200103 
     0.2113   375.8813     4.6325                                 2272500200104 
     0.2239   355.1396     4.7328                                 2272500200105 
     0.2371   345.1021     4.7650                                 2272500200106 
     0.2512   333.5284     4.7733                                 2272500200107 
     0.2661   317.1949     4.7525                                 2272500200108 
     0.2818   313.8533     4.7256                                 2272500200109 
     0.2985   299.8525     4.6580                                 2272500200110 
     0.3162   298.4053     4.5825                                 2272500200111 
     0.3350   279.0137     4.4962                                 2272500200112 
     0.3548   280.0883     4.4318                                 2272500200113 
     0.3758   265.3919     4.3469                                 2272500200114 
     0.3981   252.6051     4.2570                                 2272500200115 
     0.4217   242.4714     4.1886                                 2272500200116 
     0.4467   240.3853     4.1260                                 2272500200117 
     0.4732   228.8589     4.0603                                 2272500200118 
     0.5012   208.8775     3.9995                                 2272500200119 
     0.5309   207.7946     3.9584                                 2272500200120 
     0.5623   207.5927     3.9075                                 2272500200121 
     0.5957   205.0803     3.8477                                 2272500200122 
     0.6310   201.1078     3.7932                                 2272500200123 
     0.6683   184.6254     3.7371                                 2272500200124 
     0.7079   170.7673     3.6862                                 2272500200125 
     0.7499   175.4386     3.6287                                 2272500200126 
     0.7943   164.3339     3.5626                                 2272500200127 
     0.8414   161.1501     3.5210                                 2272500200128 
     0.8913   163.1935     3.4539                                 2272500200129 
     0.9441   144.7588     3.4082                                 2272500200130 
     1.0000   150.5850     3.3693                                 2272500200131 
     1.0593   142.5204     3.3198                                 2272500200132 
     1.1220   137.8612     3.2845                                 2272500200133 
     1.1885   146.7357     3.2344                                 2272500200134 
     1.2589   146.6451     3.2120                                 2272500200135 
     1.3335   165.2719     3.2016                                 2272500200136 
     1.4125   180.5648     3.1949                                 2272500200137 
     1.4962   225.5623     3.2602                                 2272500200138 
     1.5849   357.7680     3.7278                                 2272500200139 
     1.6788  1038.9896     8.9289                                 2272500200140 
     1.7783  2814.5381     9.2285                                 2272500200141 
     1.8836   927.5322     3.5549                                 2272500200142 
     1.9953   286.0503     2.9976                                 2272500200143 
     2.1135   159.9361     2.8664                                 2272500200144 
     2.2387   124.0291     2.8127                                 2272500200145 
     2.3714   103.1534     2.7723                                 2272500200146 
     2.5119   107.4996     2.7779                                 2272500200147 
     2.6607   194.3011     3.0559                                 2272500200148 
     2.8184   602.6111     2.9664                                 2272500200149 
     2.9854   178.7605     2.6539                                 2272500200150 
     3.1623   101.9902     2.6064                                 2272500200151 
     3.3497   103.4073     2.6062                                 2272500200152 
     3.5481   140.2813     2.8408                                 2272500200153 
     3.7584   919.0031     3.1545                                 2272500200154 
     3.9811   418.9619     2.6168                                 2272500200155 
     4.2170   185.2313     2.7298                                 2272500200156 
     4.4668   692.5830     2.7868                                 2272500200157 
     4.7315   306.7188     2.6585                                 2272500200158 
     5.0119   341.9842     3.5587                                 2272500200159 
     5.3088   994.2730     8.3543                                 2272500200160 
     5.6234  4337.6921     8.6547                                 2272500200161 
     5.9566  1831.9760     3.2330                                 2272500200162 
     6.3096   481.3989     2.4959                                 2272500200163 
     6.6834   190.1826     2.3129                                 2272500200164 
     7.0795   105.8646     2.2436                                 2272500200165 
     7.4989    76.1625     2.2209                                 2272500200166 
     7.9433   196.7371     2.2121                                 2272500200167 
     8.4140    95.9206     2.1444                                 2272500200168 
     8.9125    38.0571     2.1218                                 2272500200169 
     9.4406    34.3179     2.1127                                 2272500200170 
    10.0000    41.9389     2.1505                                 2272500200171 
    10.5925   667.9887     2.2662                                 2272500200172 
    11.2202   100.2277     2.0842                                 2272500200173 
    11.8850    36.1340     2.0218                                 2272500200174 
    12.5893    43.6402     2.0064                                 2272500200175 
    13.3352    30.7005     2.0233                                 2272500200176 
    14.1254    81.1522     2.0502                                 2272500200177 
    14.9624   479.7067     2.0309                                 2272500200178 
    15.8489    88.5439     2.2271                                 2272500200179 
    16.7880  1089.6213     2.1940                                 2272500200180 
    17.7828   103.6561     1.9647                                 2272500200181 
    18.8365   473.9297     1.9367                                 2272500200182 
    19.9526    60.0921     1.9334                                 2272500200183 
    21.1349   266.1972     1.9215                                 2272500200184 
    22.3872    30.1780     1.8610                                 2272500200185 
    23.7137    25.6991     1.8198                                 2272500200186 
    25.1189    85.3964     1.8062                                 2272500200187 
    26.6073    38.0911     1.7920                                 2272500200188 
    28.1838    21.6485     1.7772                                 2272500200189 
    29.8538    77.9151     1.7631                                 2272500200190 
    31.6228    27.4187     1.7511                                 2272500200191 
    33.4965    19.6849     1.7483                                 2272500200192 
    35.4813    36.6855     1.7436                                 2272500200193 
    37.5837   120.5110     1.7288                                 2272500200194 
    39.8107   241.9917     1.7126                                 2272500200195 
    42.1697    25.0253     1.6968                                 2272500200196 
    44.6684   115.4167     1.6810                                 2272500200197 
    47.3151    75.8433     1.6764                                 2272500200198 
    50.1187    23.1457     1.6758                                 2272500200199 
    53.0884    98.4240     1.6720                                 2272500200200 
    56.2341    66.2720     1.6633                                 2272500200201 
    59.5662   130.1094     1.6551                                 2272500200202 
    63.0957   260.2704     1.6627                                 2272500200203 
    66.8344    53.2508     1.6759                                 2272500200204 
    70.7946   152.9934     1.6819                                 2272500200205 
    74.9894   998.3982     1.6475                                 2272500200206 
    79.4328   100.5223     1.6054                                 2272500200207 
    84.1395    71.1573     1.5662                                 2272500200208 
    89.1251    63.7694     1.5554                                 2272500200209 
    94.4061    84.3060     1.5487                                 2272500200210 
   100.0000    67.1065     1.5416                                 2272500200211 
   105.9254    48.4363     1.5332                                 2272500200212 
   112.2018   107.2785     1.5240                                 2272500200213 
   118.8502    48.6877     1.5142                                 2272500200214 
   125.8925    57.3770     1.5049                                 2272500200215 
   133.3521    77.1063     1.4998                                 2272500200216 
   141.2538    38.1737     1.4950                                 2272500200217 
   149.6236   143.4081     1.4900                                 2272500200218 
   158.4893   324.9300     1.4841                                 2272500200219 
   167.8804   103.7495     1.4736                                 2272500200220 
   177.8279    60.7655     1.4617                                 2272500200221 
   188.3649    53.4131     1.4490                                 2272500200222 
   199.5262    40.6837     1.4356                                 2272500200223 
   211.3489    42.5167     1.4249                                 2272500200224 
   223.8721    54.2513     1.4207                                 2272500200225 
   237.1374    86.0658     1.4163                                 2272500200226 
   251.1886    50.5866     1.4118                                 2272500200227 
   266.0725    36.2058     1.4069                                 2272500200228 
   281.8383    79.7941     1.4017                                 2272500200229 
   298.5383   152.0592     1.3954                                 2272500200230 
   316.2278    60.4205     1.3886                                 2272500200231 
   334.9654    56.1532     1.3813                                 2272500200232 
   354.8134    76.5104     1.3737                                 2272500200233 
   375.8374    59.3642     1.3655                                 2272500200234 
   398.1072    48.8474     1.3570                                 2272500200235 
   421.6965    47.4936     1.3510                                 2272500200236 
   446.6836    65.6993     1.3466                                 2272500200237 
   473.1513    49.7923     1.3419                                 2272500200238 
   501.1872    46.6846     1.3370                                 2272500200239 
   530.8844    43.5158     1.3317                                 2272500200240 
   562.3413    53.9046     1.3262                                 2272500200241 
   595.6621    43.1700     1.3203                                 2272500200242 
   630.9573    43.3115     1.3141                                 2272500200243 
   668.3439    46.5876     1.3074                                 2272500200244 
   707.9458    56.1337     1.3004                                 2272500200245 
   749.8942    78.3678     1.2929                                 2272500200246 
   794.3282    57.3033     1.2849                                 2272500200247 
   841.3951    51.6754     1.2765                                 2272500200248 
   891.2509    48.4037     1.2676                                 2272500200249 
   944.0609    51.3455     1.2582                                 2272500200250 
  1000.0000    49.7750     1.2482                                 2272500200251 
  1059.2537    49.9910     1.2376                                 2272500200252 
  1122.0185    41.2609     1.2258                                 2272500200253 
  1188.5022    35.5779     1.2069                                 2272500200254 
  1258.9254    35.1263     1.1851                                 2272500200255 
  1333.5214    32.9089     1.1621                                 2272500200256 
  1412.5375    33.5398     1.1377                                 2272500200257 
  1496.2357    35.0444     1.1118                                 2272500200258 
  1584.8932    38.4659     1.0844                                 2272500200259 
  1678.8040    38.7347     1.0554                                 2272500200260 
  1778.2794    41.8527     1.0247                                 2272500200261 
  1883.6491    44.1487     0.9921                                 2272500200262 
  1995.2623    43.7118     0.9576                                 2272500200263 
  2113.4890    44.6326     0.9211                                 2272500200264 
  2238.7211    44.2465     0.8824                                 2272500200265 
  2371.3737    41.7006     0.8414                                 2272500200266 
  2511.8864    40.7450     0.8000                                 2272500200267 
  2660.7251    34.0690     0.7900                                 2272500200268 
  2818.3829    31.7974     0.7915                                 2272500200269 
  2985.3826    31.0910     0.7932                                 2272500200270 
  3162.2777    32.4308     0.7950                                 2272500200271 
  3349.6544    32.2276     0.7968                                 2272500200272 
  3548.1339    32.8619     0.7988                                 2272500200273 
  3758.3740    32.5339     0.8009                                 2272500200274 
  3981.0717    32.0411     0.8031                                 2272500200275 
  4216.9650    29.2654     0.8055                                 2272500200276 
  4466.8359    29.0991     0.8080                                 2272500200277 
  4731.5126    29.2031     0.8106                                 2272500200278 
  5011.8723    28.9180     0.8134                                 2272500200279 
  5308.8444    27.3530     0.8164                                 2272500200280 
  5623.4133    24.6741     0.8195                                 2272500200281 
  5956.6214    24.2187     0.8228                                 2272500200282 
  6309.5734    27.0314     0.8263                                 2272500200283 
  6683.4392    26.5757     0.8301                                 2272500200284 
  7079.4578    25.6225     0.8340                                 2272500200285 
  7498.9421    25.5669     0.8382                                 2272500200286 
  7943.2823    24.4583     0.8426                                 2272500200287 
  8413.9514    23.0002     0.8473                                 2272500200288 
  8912.5094    24.2675     0.8523                                 2272500200289 
  9440.6088    22.6127     0.8575                                 2272500200290 
 10000.0000    21.6819     0.8376                                 2272500200291 
 10592.5373    21.5609     0.8350                                 2272500200292 
 11220.1845    21.2290     0.8316                                 2272500200293 
 11885.0223    20.4609     0.8285                                 2272500200294 
 12589.2541    19.4100     0.8258                                 2272500200295 
 13335.2143    18.7251     0.8215                                 2272500200296 
 14125.3754    19.2296     0.8129                                 2272500200297 
 14962.3566    18.3651     0.8097                                 2272500200298 
 15848.9319    17.6039     0.8046                                 2272500200299 
 16788.0402    17.3509     0.9633                                 2272500200300 
 17782.7941    16.5167     0.9207                                 2272500200301 
 18836.4909    16.4186     0.8097                                 2272500200302 
 19952.6232    16.2389     0.6733                                 2272500200303 
 21134.8904    14.8744     0.5644                                 2272500200304 
 22387.2114    15.0555     0.4214                                 2272500200305 
 23713.7371    15.8203     0.7776                                 2272500200306 
 25118.8643    15.3444     0.6229                                 2272500200307 
 26607.2506    14.7173     0.5571                                 2272500200308 
 28183.8293    14.1127     0.6024                                 2272500200309 
 29853.8262    13.8934     0.9063                                 2272500200310 
 31622.7766    13.9466     0.7995                                 2272500200311 
 33496.5439    13.7324     0.7104                                 2272500200312 
 35481.3389    13.3764     0.6284                                 2272500200313 
 37583.7404    12.8758     0.5783                                 2272500200314 
 39810.7171    12.3003     0.5412                                 2272500200315 
 42169.6503    12.4062     0.4988                                 2272500200316 
 44668.3592    12.4705     0.4518                                 2272500200317 
 47315.1259    12.5349     0.4241                                 2272500200318 
 50118.7234    11.7717     0.4294                                 2272500200319 
 53088.4444    11.0338     0.4316                                 2272500200320 
 56234.1325    10.7656     0.4094                                 2272500200321 
 59566.2144    10.5727     0.3816                                 2272500200322 
 63095.7344    10.3214     0.3850                                 2272500200323 
 66834.3918    10.2391     0.4351                                 2272500200324 
 70794.5784    10.1394     0.4885                                 2272500200325 
 74989.4209     9.9693     0.5454                                 2272500200326 
 79432.8235     9.9137     0.6059                                 2272500200327 
 84139.5142     9.8540     0.6718                                 2272500200328 
 89125.0938     9.7114     0.9402                                 2272500200329 
 94406.0876     9.5067     0.5838                                 2272500200330 
100000.0000     9.2900     0.8013                                 2272500200331 
ENDDATA            311          0                                 2272500200332 
ENDSUBENT          331          0                                 2272500299999 
SUBENT        22725003   20050225                             21712272500300001 
BIB                  4         12                                 2272500300002 
REACTION   (72-HF-0(N,TOT),,SIG)                                  2272500300003 
SAMPLE     .fOUR metal transmission samples wer placed at the     2272500300004 
            midpoint of the flight path and were cycled into      2272500300005 
            the neutron beam by an automatic sample changer       2272500300006 
            with four sample positions.                           2272500300007 
           .Purity of all samples were 99.9%, size 5.0 x 5.0 cm2, 2272500300008 
            Thicknesses - 1st 0.50 mm = 2.224 atoms/kb,           2272500300009 
                          2nd 1.50 mm = 6.731 atoms/kb,           2272500300010 
                          3d  2.00 mm = 8.975 atoms/kb,           2272500300011 
                          4th 3.00 mm =13.462 atoms/kb            2272500300012 
ERR-ANALYS (ERR-5) Min statistical error                          2272500300013 
STATUS     (TABLE) Delivered by INTERNET from authors             2272500300014 
ENDBIB              12          0                                 2272500300015 
COMMON               1          3                                 2272500300016 
ERR-5                                                             2272500300017 
PER-CENT                                                          2272500300018 
   0.36                                                           2272500300019 
ENDCOMMON            3          0                                 2272500300020 
DATA                 3        302                                 2272500300021 
EN         DATA       ERR-S                                       2272500300022 
EV         B          B                                           2272500300023 
 0.00298538    302.67     29.00                                   2272500300024 
 0.00316227    291.29     33.67                                   2272500300025 
 0.00334965    279.75     22.46                                   2272500300026 
 0.00354813    270.01     22.14                                   2272500300027 
 0.00375837    264.48     22.62                                   2272500300028 
 0.00398107    254.05     17.50                                   2272500300029 
 0.00421696    251.55     17.50                                   2272500300030 
 0.00446683    245.26     15.12                                   2272500300031 
 0.00473151    236.82     14.40                                   2272500300032 
 0.00501187    231.12     14.24                                   2272500300033 
 0.00530884    225.68     13.21                                   2272500300034 
 0.00562341    218.47     12.20                                   2272500300035 
 0.00595662    215.62     11.04                                   2272500300036 
 0.00630957    210.93     10.24                                   2272500300037 
 0.00668343    206.73      9.56                                   2272500300038 
 0.00707945    199.39      8.96                                   2272500300039 
 0.00749894    194.01      8.30                                   2272500300040 
 0.00794328    186.71      7.62                                   2272500300041 
 0.00841395    182.89      7.01                                   2272500300042 
 0.00891250    177.86      6.49                                   2272500300043 
 0.00944060    175.31      6.13                                   2272500300044 
 0.01          174.01      5.80                                   2272500300045 
 0.01059253    168.23      5.40                                   2272500300046 
 0.01122018    165.90      5.06                                   2272500300047 
 0.01188502    161.39      4.59                                   2272500300048 
 0.01258925    157.22      4.31                                   2272500300049 
 0.01333521    154.87      3.98                                   2272500300050 
 0.01412537    151.79      3.72                                   2272500300051 
 0.01496235    144.18      3.52                                   2272500300052 
 0.01584893    141.30      3.31                                   2272500300053 
 0.01678804    139.42      3.12                                   2272500300054 
 0.01778279    133.10      2.89                                   2272500300055 
 0.01883649    128.82      2.71                                   2272500300056 
 0.01995262    124.57      2.55                                   2272500300057 
 0.02113489    119.97      2.40                                   2272500300058 
 0.02238721    117.15      2.26                                   2272500300059 
 0.02371373    116.71      2.14                                   2272500300060 
 0.02511886    112.96      2.02                                   2272500300061 
 0.02660725    111.43      1.90                                   2272500300062 
 0.02818382    110.03      1.79                                   2272500300063 
 0.02985382    106.45      1.70                                   2272500300064 
 0.03162277    103.48      1.63                                   2272500300065 
 0.03349654    100.67      1.55                                   2272500300066 
 0.03548133     94.31      1.48                                   2272500300067 
 0.03758374     92.49      1.41                                   2272500300068 
 0.03981071     90.19      1.35                                   2272500300069 
 0.04216965     88.78      1.29                                   2272500300070 
 0.04466835     86.23      1.25                                   2272500300071 
 0.04731512     84.48      1.20                                   2272500300072 
 0.05011872     82.87      1.17                                   2272500300073 
 0.05308844     80.01      1.13                                   2272500300074 
 0.05623413     77.37      1.10                                   2272500300075 
 0.05956621     75.35      1.08                                   2272500300076 
 0.06309573     74.06      1.06                                   2272500300077 
 0.06683439     74.16      1.05                                   2272500300078 
 0.07079457     71.66      1.04                                   2272500300079 
 0.07498942     71.72      1.03                                   2272500300080 
 0.07943282     68.94      1.03                                   2272500300081 
 0.08413951     67.04      1.03                                   2272500300082 
 0.08912509     64.94      1.04                                   2272500300083 
 0.09440608     63.48      1.06                                   2272500300084 
 0.1            62.48      1.08                                   2272500300085 
 0.10592537     61.43      1.11                                   2272500300086 
 0.11220184     60.13      1.14                                   2272500300087 
 0.11885022     57.73      1.17                                   2272500300088 
 0.12589254     57.66      1.22                                   2272500300089 
 0.13335214     54.57      1.28                                   2272500300090 
 0.14125375     55.89      1.33                                   2272500300091 
 0.14962356     56.23      1.40                                   2272500300092 
 0.15848931     52.57      1.47                                   2272500300093 
 0.16788040     53.65      1.55                                   2272500300094 
 0.17782794     52.36      1.63                                   2272500300095 
 0.18836490     49.71      1.70                                   2272500300096 
 0.19952623     55.00      1.77                                   2272500300097 
 0.21134890     50.37      1.83                                   2272500300098 
 0.22387211     48.87      1.87                                   2272500300099 
 0.23713737     45.96      1.90                                   2272500300100 
 0.25118864     46.80      1.92                                   2272500300101 
 0.26607250     50.14      1.92                                   2272500300102 
 0.28183829     46.88      1.91                                   2272500300103 
 0.29853826     49.32      1.90                                   2272500300104 
 0.31622776     51.19      1.88                                   2272500300105 
 0.33496543     46.52      1.85                                   2272500300106 
 0.35481338     47.87      1.83                                   2272500300107 
 0.37583740     46.92      1.80                                   2272500300108 
 0.39810717     44.93      1.78                                   2272500300109 
 0.42169650     48.27      1.76                                   2272500300110 
 0.44668359     51.90      1.74                                   2272500300111 
 0.47315125     49.28      1.72                                   2272500300112 
 0.50118723     53.72      1.71                                   2272500300113 
 0.53088444     51.85      1.69                                   2272500300114 
 0.56234132     54.17      1.68                                   2272500300115 
 0.59566214     69.45      1.67                                   2272500300116 
 0.63095734     64.30      1.65                                   2272500300117 
 0.66834391     62.70      1.65                                   2272500300118 
 0.70794578     70.33      1.64                                   2272500300119 
 0.74989420     89.52      1.64                                   2272500300120 
 0.79432823    105.01      1.65                                   2272500300121 
 0.84139514    125.32      1.68                                   2272500300122 
 0.89125093    177.40      1.75                                   2272500300123 
 0.94406087    256.05      1.95                                   2272500300124 
 1.            506.70      2.83                                   2272500300125 
 1.05925372   1509.69      7.71                                   2272500300126 
 1.12201845   3287.49      8.61                                   2272500300127 
 1.18850222   1705.33      4.16                                   2272500300128 
 1.25892541    511.00      1.89                                   2272500300129 
 1.33352143    209.27      1.57                                   2272500300130 
 1.41253754    119.88      1.45                                   2272500300131 
 1.49623565     86.82      1.40                                   2272500300132 
 1.58489319     76.53      1.37                                   2272500300133 
 1.67880401     67.77      1.35                                   2272500300134 
 1.77827941     69.61      1.34                                   2272500300135 
 1.88364909     79.13      1.35                                   2272500300136 
 1.99526231    100.85      1.39                                   2272500300137 
 2.11348904    164.47      1.52                                   2272500300138 
 2.23872113    381.29      2.63                                   2272500300139 
 2.37137370   1765.78      6.34                                   2272500300140 
 2.51188643   2714.04      3.85                                   2272500300141 
 2.66072506    968.12      1.53                                   2272500300142 
 2.81838293    173.22      1.27                                   2272500300143 
 2.98538261     83.75      1.19                                   2272500300144 
 3.16227766     49.17      1.16                                   2272500300145 
 3.34965439     39.42      1.14                                   2272500300146 
 3.54813389     27.91      1.12                                   2272500300147 
 3.75837404     27.09      1.11                                   2272500300148 
 3.98107170     22.60      1.09                                   2272500300149 
 4.21696503     22.20      1.08                                   2272500300150 
 4.46683592     24.25      1.07                                   2272500300151 
 4.73151259     25.78      1.06                                   2272500300152 
 5.01187233     28.06      1.05                                   2272500300153 
 5.30884444     36.97      1.09                                   2272500300154 
 5.62341325    302.68      1.83                                   2272500300155 
 5.95662143   1932.03      1.83                                   2272500300156 
 6.30957344    186.14      1.37                                   2272500300157 
 6.68343917   2322.19      1.60                                   2272500300158 
 7.07945784    246.05      1.43                                   2272500300159 
 7.49894209    724.45      2.56                                   2272500300160 
 7.94328234   3389.46      3.68                                   2272500300161 
 8.41395141    828.53      1.64                                   2272500300162 
 8.91250938    510.70      1.32                                   2272500300163 
 9.44060876    166.13      1.03                                   2272500300164 
 10.            57.74      0.96                                   2272500300165 
 10.5925372     37.36      0.94                                   2272500300166 
 11.2201845     85.44      0.93                                   2272500300167 
 11.8850222     24.60      0.91                                   2272500300168 
 12.5892541     21.52      0.90                                   2272500300169 
 13.3352143     23.46      0.91                                   2272500300170 
 14.1253754    194.16      0.92                                   2272500300171 
 14.9623565     23.98      0.89                                   2272500300172 
 15.8489319     15.45      0.86                                   2272500300173 
 16.7880401     12.54      0.86                                   2272500300174 
 17.7827941     91.23      0.85                                   2272500300175 
 18.8364909     19.63      0.84                                   2272500300176 
 19.9526231     10.12      0.84                                   2272500300177 
 21.1348904     11.23      0.84                                   2272500300178 
 22.3872113    103.93      0.85                                   2272500300179 
 23.7137370     42.60      0.84                                   2272500300180 
 25.1188643    188.78      0.81                                   2272500300181 
 26.6072506     16.17      0.80                                   2272500300182 
 28.1838293     68.16      0.79                                   2272500300183 
 29.8538261     13.21      0.79                                   2272500300184 
 31.6227766    117.45      0.79                                   2272500300185 
 33.4965439     25.83      0.79                                   2272500300186 
 35.4813389     11.07      0.79                                   2272500300187 
 37.5837404    248.20      0.78                                   2272500300188 
 39.8107170     33.96      0.77                                   2272500300189 
 42.1696503    115.91      0.77                                   2272500300190 
 44.6683592     52.40      0.77                                   2272500300191 
 47.3151259     37.00      0.77                                   2272500300192 
 50.1187233    329.63      0.76                                   2272500300193 
 53.0884444     46.51      0.75                                   2272500300194 
 56.2341325     39.11      0.74                                   2272500300195 
 59.5662143    137.76      0.73                                   2272500300196 
 63.0957344     22.74      0.73                                   2272500300197 
 66.8343917    120.96      0.73                                   2272500300198 
 70.7945784     50.06      0.73                                   2272500300199 
 74.9894209    259.44      0.72                                   2272500300200 
 79.4328234     66.03      0.70                                   2272500300201 
 84.1395141     18.02      0.69                                   2272500300202 
 89.1250938     86.54      0.69                                   2272500300203 
 94.4060876     22.23      0.69                                   2272500300204 
 100.           27.62      0.69                                   2272500300205 
 105.925372    143.45      0.68                                   2272500300206 
 112.201845     44.82      0.68                                   2272500300207 
 118.850222     12.99      0.67                                   2272500300208 
 125.892541     65.82      0.67                                   2272500300209 
 133.352143     26.21      0.66                                   2272500300210 
 141.253754     21.75      0.66                                   2272500300211 
 149.623565     42.35      0.66                                   2272500300212 
 158.489319     61.41      0.65                                   2272500300213 
 167.880401     18.12      0.65                                   2272500300214 
 177.827941    142.74      0.65                                   2272500300215 
 188.364909     69.38      0.64                                   2272500300216 
 199.526231     30.12      0.64                                   2272500300217 
 211.348904     19.87      0.64                                   2272500300218 
 223.872113     63.58      0.63                                   2272500300219 
 237.137370     18.33      0.63                                   2272500300220 
 251.188643     23.65      0.63                                   2272500300221 
 266.072506     59.63      0.62                                   2272500300222 
 281.838293     41.95      0.62                                   2272500300223 
 298.538261     72.29      0.62                                   2272500300224 
 316.227766     38.20      0.62                                   2272500300225 
 334.965439     32.48      0.61                                   2272500300226 
 354.813389     28.70      0.61                                   2272500300227 
 375.837404     25.57      0.61                                   2272500300228 
 398.107170     26.31      0.60                                   2272500300229 
 421.696503     32.76      0.60                                   2272500300230 
 446.683592     33.54      0.60                                   2272500300231 
 473.151259     25.86      0.60                                   2272500300232 
 501.187233     32.18      0.59                                   2272500300233 
 530.884444     32.11      0.59                                   2272500300234 
 562.341325     22.59      0.59                                   2272500300235 
 595.662143     19.16      0.59                                   2272500300236 
 630.957344     21.77      0.58                                   2272500300237 
 668.343917     19.81      0.58                                   2272500300238 
 707.945784     22.13      0.58                                   2272500300239 
 749.894209     19.35      0.57                                   2272500300240 
 794.328234     23.78      0.57                                   2272500300241 
 841.395141     34.08      0.57                                   2272500300242 
 891.250938     38.68      0.56                                   2272500300243 
 944.060876     35.69      0.56                                   2272500300244 
 1000.          35.33      0.55                                   2272500300245 
 1059.25372     23.67      0.55                                   2272500300246 
 1122.01845     25.57      0.54                                   2272500300247 
 1188.50222     23.66      0.53                                   2272500300248 
 1258.92541     21.64      0.53                                   2272500300249 
 1333.52143     20.57      0.52                                   2272500300250 
 1412.53754     22.03      0.51                                   2272500300251 
 1496.23565     23.24      0.49                                   2272500300252 
 1584.89319     20.67      0.48                                   2272500300253 
 1678.80401     18.80      0.47                                   2272500300254 
 1778.27941     20.11      0.46                                   2272500300255 
 1883.64909     18.17      0.44                                   2272500300256 
 1995.26231     18.91      0.43                                   2272500300257 
 2113.48904     19.92      0.41                                   2272500300258 
 2238.72113     20.93      0.40                                   2272500300259 
 2371.37370     19.58      0.38                                   2272500300260 
 2511.88643     20.05      0.36                                   2272500300261 
 2660.72506     22.03      0.36                                   2272500300262 
 2818.38293     18.63      0.36                                   2272500300263 
 2985.38261     19.86      0.36                                   2272500300264 
 3162.27766     19.12      0.36                                   2272500300265 
 3349.65439     17.94      0.36                                   2272500300266 
 3548.13389     18.14      0.36                                   2272500300267 
 3758.37404     16.45      0.36                                   2272500300268 
 3981.07170     17.01      0.36                                   2272500300269 
 4216.96503     18.79      0.36                                   2272500300270 
 4466.83592     16.79      0.36                                   2272500300271 
 4731.51259     15.41      0.36                                   2272500300272 
 5011.87233     17.98      0.36                                   2272500300273 
 5308.84444     18.01      0.36                                   2272500300274 
 5623.41325     19.83      0.36                                   2272500300275 
 5956.62143     19.15      0.36                                   2272500300276 
 6309.57344     18.82      0.36                                   2272500300277 
 6683.43917     20.45      0.36                                   2272500300278 
 7079.45784     17.10      0.36                                   2272500300279 
 7498.94209     15.79      0.36                                   2272500300280 
 7943.28234     15.33      0.37                                   2272500300281 
 8413.95141     13.74      0.37                                   2272500300282 
 8912.50938     12.74      0.35                                   2272500300283 
 9440.60876     12.33      0.37                                   2272500300284 
 10000.         12.95      0.35                                   2272500300285 
 10592.5372     12.66      0.37                                   2272500300286 
 11220.1845     12.00      0.37                                   2272500300287 
 11885.0222     11.67      0.37                                   2272500300288 
 12589.2541     11.76      0.38                                   2272500300289 
 13335.2143     12.26      0.36                                   2272500300290 
 14125.3754     12.49      0.35                                   2272500300291 
 14962.3565     12.04      0.35                                   2272500300292 
 15848.9319     11.72      0.36                                   2272500300293 
 16788.0401     11.73      0.35                                   2272500300294 
 17782.7941     11.48      0.35                                   2272500300295 
 18836.4909     11.01      0.35                                   2272500300296 
 19952.6231     10.46      0.35                                   2272500300297 
 21134.8904     10.06      0.34                                   2272500300298 
 22387.2113     10.69      0.34                                   2272500300299 
 23713.7370     11.48      0.33                                   2272500300300 
 25118.8643     10.41      0.33                                   2272500300301 
 26607.2506      9.50      0.33                                   2272500300302 
 28183.8293      9.26      0.33                                   2272500300303 
 29853.8261      9.17      0.33                                   2272500300304 
 31622.7766      9.19      0.32                                   2272500300305 
 33496.5439      9.22      0.32                                   2272500300306 
 35481.3389      8.25      0.32                                   2272500300307 
 37583.7404      8.06      0.32                                   2272500300308 
 39810.7170      8.77      0.32                                   2272500300309 
 42169.6503      8.70      0.32                                   2272500300310 
 44668.3592      8.29      0.32                                   2272500300311 
 47315.1259      7.93      0.32                                   2272500300312 
 50118.7233      7.64      0.32                                   2272500300313 
 53088.4444      7.31      0.32                                   2272500300314 
 56234.1325      7.11      0.32                                   2272500300315 
 59566.2143      7.34      0.32                                   2272500300316 
 63095.7344      7.14      0.32                                   2272500300317 
 66834.3917      7.07      0.32                                   2272500300318 
 70794.5784      7.49      0.32                                   2272500300319 
 74989.4209      7.84      0.31                                   2272500300320 
 79432.8234      7.63      0.31                                   2272500300321 
 84139.5141      7.41      0.31                                   2272500300322 
 89125.0938      7.20      0.30                                   2272500300323 
 94406.0876      6.99      0.30                                   2272500300324 
100000.          7.26      0.30                                   2272500300325 
ENDDATA            304          0                                 2272500300326 
ENDSUBENT          325          0                                 2272500399999 
ENDENTRY             3          0                                 2272599999999 
