ENTRY            22981   20070919                             21872298100000001 
SUBENT        22981001   20070919                             21872298100100001 
BIB                 13         32                                 2298100100002 
TITLE      .Measurement of neutron capture cross section          2298100100003 
            for natural palladium.                                2298100100004 
AUTHOR     (J.Hori, H.Yashima, T.Oishi, W.Takahashi, M.Baba,      2298100100005 
           K.Nakajima)                                            2298100100006 
INSTITUTE  (2JPNKTO) Research Reactor Institute, Kyoto University,2298100100007 
             Kumatori-cho, Sennan-gun, Osaka 590-0494, Japan.     2298100100008 
              J.Hori, H.Yashima, K.Nakajima                       2298100100009 
           (2JPNTOH) Cyclotron and Radioisotope Center, Tohoku    2298100100010 
             University, Aoba, Aramaki, Aoba-ku, Sendai 980-8578, 2298100100011 
             Japan. T. Oishi, W.Takahashi, M.Baba                 2298100100012 
REFERENCE  (C,2005NOTRED,,577,2005)  Main reference, graph given  2298100100013 
REL-REF    (N,,S.YAMAMOTO+,J,NIM/A,249,484,1986) Description of   2298100100014 
             the detector BGO (Bi4-Ge3-O12) assembly              2298100100015 
FACILITY   (LINAC,2JPNKTO)  46 MeV Kyoto electron accelerator.    2298100100016 
             For En < 20 eV electron repetition rate 50 Hz, pulse 2298100100017 
             width 3 microsec, average electron current 78 microA.2298100100018 
             For En > 2 eV repetition rate is 200 Hz, pulse width 2298100100019 
             47 nanosec, average electron current 45 microA.      2298100100020 
INC-SOURCE (PHOTO,THCOL)  Water-cooled Tantalum target in a water 2298100100021 
             tank as a moderator                                  2298100100022 
METHOD     (TOF)  Flight path aprx 13 m                           2298100100023 
DETECTOR   (SCIN)  Total absorption spectrometer consisting of    2298100100024 
                 twelwe BGO scintillators located at 12.7+-0.02 m 2298100100025 
                 from the neutron source                          2298100100026 
SAMPLE     .Palladium metal plate 1.8*1.8*0.1 cm3 was used as a   2298100100027 
            sample                                                2298100100028 
MONITOR    (5-B-10(N,A)3-LI-7,,SIG)                               2298100100029 
CORRECTION .Corrections for background made with the notch-filters2298100100030 
            of In, Co, Mn and a block-off method with a thick     2298100100031 
            B-10 plug 4.54 gram/cm2 thick. Correction for neutron 2298100100032 
            scattering and self-shielding were made also.         2298100100033 
HISTORY    (20070919C)                                            2298100100034 
ENDBIB              32          0                                 2298100100035 
NOCOMMON             0          0                                 2298100100036 
ENDSUBENT           35          0                                 2298100199999 
SUBENT        22981002   20070821                             21872298100200001 
BIB                  3          5                                 2298100200002 
REACTION   (46-PD-0(N,G),,SIG)                                    2298100200003 
ERR-ANALYS (EN-ERR-DIG) Incident neutron energy digitizing error  2298100200004 
           (ERR-DIG)    Data digitizing error                     2298100200005 
           (DATA-ERR)   Error from the graphic bars               2298100200006 
STATUS     (CURVE) Fig.2 of main reference                        2298100200007 
ENDBIB               5          0                                 2298100200008 
COMMON               2          3                                 2298100200009 
EN-ERR-DIG ERR-DIG                                                2298100200010 
PER-CENT   PER-CENT                                               2298100200011 
 5.4166E-03 1.0185E-02                                            2298100200012 
ENDCOMMON            3          0                                 2298100200013 
DATA                 3        669                                 2298100200014 
EN         DATA       DATA-ERR                                    2298100200015 
EV         B          B                                           2298100200016 
  1.0983E-2     10.022                                            2298100200017 
  1.2787E-2     9.3511                                            2298100200018 
  1.4662E-2      8.929                                            2298100200019 
  1.6813E-2     8.1418                                            2298100200020 
  1.9279E-2     7.7743                                            2298100200021 
  2.2106E-2     7.2542                                            2298100200022 
  2.5737E-2     6.9267                                            2298100200023 
  2.9512E-2      6.316                                            2298100200024 
  3.3840E-2     5.8935                                            2298100200025 
  3.8804E-2     5.6275                                            2298100200026 
  4.5177E-2     5.1313                                            2298100200027 
  5.1803E-2      4.788                                            2298100200028 
  5.9401E-2     4.4677                                            2298100200029 
  6.8113E-2     4.1688                                            2298100200030 
  7.8104E-2     3.8899                                            2298100200031 
  8.9559E-2     3.6297                                            2298100200032 
    0.10427     3.3868                                            2298100200033 
    0.11956     3.1602                                            2298100200034 
     0.1371     2.8816                                            2298100200035 
    0.15721     2.6888                                            2298100200036 
    0.18302     2.4517                                            2298100200037 
     0.2067     2.2356                                            2298100200038 
    0.24065      2.086                                            2298100200039 
    0.27595     2.0383                                            2298100200040 
    0.31642     1.8586                                            2298100200041 
    0.36839     1.6947                                            2298100200042 
    0.42242     1.5101                                            2298100200043 
    0.48437     1.3455                                            2298100200044 
    0.55542     1.4089                                            2298100200045 
    0.63687     1.1187                                            2298100200046 
    0.74147     1.0682                                            2298100200047 
    0.85025     1.1447                                            2298100200048 
    0.97495     1.0437                                            2298100200049 
     1.1011      1.068                                            2298100200050 
     1.1525    0.99661                                            2298100200051 
     1.2063    0.92998                                            2298100200052 
      1.282     1.1183                                            2298100200053 
     1.3418     1.1711                                            2298100200054 
      1.426     1.1444                                            2298100200055 
       1.47    0.97378                                            2298100200056 
     1.5386    0.86772                                            2298100200057 
     1.6104    0.95154                                            2298100200058 
     1.6602      1.171                                            2298100200059 
     1.7644     1.1443                                            2298100200060 
     1.8187    0.88789                                            2298100200061 
      1.875     1.0926                                            2298100200062 
     1.9926     1.0926                                            2298100200063 
      2.054    0.82849                                            2298100200064 
       2.15     1.0926                                            2298100200065 
     2.2503    0.86756                                            2298100200066 
     2.3199     1.0925                                            2298100200067 
     2.3917     1.3445                                            2298100200068 
     2.5032     1.1707                                            2298100200069 
     2.5417     1.3138                                            2298100200070 
       2.62    0.99621                                            2298100200071 
     2.7011     1.3138                                            2298100200072 
     2.7427      1.773                                            2298100200073 
     2.8275     2.1818                                            2298100200074 
     2.8711     3.7946                                            2298100200075 
     2.9601     5.7466                                            2298100200076 
     3.0054     5.2402                                            2298100200077 
      3.051     2.8117                                            2298100200078 
     3.1449     1.6929                                            2298100200079 
     3.1928     1.0675                                            2298100200080 
     3.4451     1.1178                                            2298100200081 
     3.5514    0.97336                                            2298100200082 
      3.774    0.79092                                            2298100200083 
     3.7743     1.1978                                            2298100200084 
     4.0111     1.2836                                            2298100200085 
      4.198    0.84752                                            2298100200086 
     4.2622    0.73801  9.5357E-2                                 2298100200087 
     4.4614    0.92939                                            2298100200088 
     4.7412    0.88747                                            2298100200089 
     4.8877    0.99591                                            2298100200090 
     5.0388     1.1437                                            2298100200091 
     5.1163     1.4074                                            2298100200092 
      5.355     1.2541                                            2298100200093 
     5.6047    0.95096                                            2298100200094 
      5.778     1.1436                                            2298100200095 
     6.1399    0.79073    0.10217                                 2298100200096 
     6.1402    0.95092                                            2298100200097 
     6.4271     1.1702                                            2298100200098 
     6.7268    0.97306    0.14504                                 2298100200099 
     7.1491     1.2254                                            2298100200100 
     7.5973     1.0427    0.15542                                 2298100200101 
     8.0738      1.067    0.13786                                 2298100200102 
     8.1978     1.1974                                            2298100200103 
     9.1185     1.0918    0.18392                                 2298100200104 
     9.9899     1.1972    0.20168                                 2298100200105 
     10.143     1.4734                                            2298100200106 
     10.779     1.1172    0.14435                                 2298100200107 
     11.284     1.9429                                            2298100200108 
     11.284     2.2312                                            2298100200109 
     11.634     4.4562                                            2298100200110 
     11.634     3.8804                                            2298100200111 
     11.635     6.2977                                            2298100200112 
     11.636     10.221                                            2298100200113 
     11.815     14.444                                            2298100200114 
     11.815     11.737                                            2298100200115 
     11.816     16.974                                            2298100200116 
     12.178     5.2367                                            2298100200117 
     12.179     8.1157                                            2298100200118 
     12.363     3.3019                                            2298100200119 
     12.553     4.3545                                            2298100200120 
     12.556     13.171                                            2298100200121 
     12.746     6.0136                                            2298100200122 
     12.747     7.0669                                            2298100200123 
     12.748     9.7596                                            2298100200124 
      12.75     23.441                                            2298100200125 
     12.751      28.19                                            2298100200126 
     12.751     37.176                                            2298100200127 
     12.753     58.958                                            2298100200128 
     12.944     15.839                                            2298100200129 
     12.944     11.469                                            2298100200130 
     12.947     47.909                                            2298100200131 
     12.949     83.321                                            2298100200132 
      12.95     104.93                                            2298100200133 
      12.95     132.14                                            2298100200134 
     13.143     17.774                                            2298100200135 
     13.149     158.91                                            2298100200136 
      13.55     20.888                                            2298100200137 
      13.55     25.119                                            2298100200138 
     13.551     33.126                                            2298100200139 
     13.551     39.837                                            2298100200140 
     13.552     56.299                                            2298100200141 
     13.554     117.75                                            2298100200142 
     13.554     95.682                                            2298100200143 
     13.754     7.7495                                            2298100200144 
     13.754     6.7482                                            2298100200145 
     13.755     9.1069                                            2298100200146 
     13.755     11.207                                            2298100200147 
     13.756      12.87                                            2298100200148 
     13.761      77.75                                            2298100200149 
     13.763     148.29                                            2298100200150 
     13.962     2.6218                                            2298100200151 
     13.964     5.6114                                            2298100200152 
     13.964     4.8863                                            2298100200153 
     13.967     17.369                                            2298100200154 
     14.175     2.1801                                            2298100200155 
     14.177     3.3017                                            2298100200156 
     14.177     4.3542                                            2298100200157 
     14.393     2.8095                                            2298100200158 
     14.612     1.6917                                            2298100200159 
     14.837     1.9427                                            2298100200160 
     15.063     1.5074                                            2298100200161 
     15.529     1.8128                                            2298100200162 
     15.766     1.2827                                            2298100200163 
     16.501     1.0915    0.18387                                 2298100200164 
     17.012     1.5785                                            2298100200165 
     17.272     1.0915    0.16269                                 2298100200166 
     17.272     1.2248                                            2298100200167 
     17.806     1.4066                                            2298100200168 
     18.356     1.6153                                            2298100200169 
     19.805    0.97255    0.14497                                 2298100200170 
      20.11     1.6529                                            2298100200171 
      20.11     1.4729     0.1604                                 2298100200172 
     20.417     1.0665    0.13781                                 2298100200173 
      21.37     1.1968    0.17839                                 2298100200174 
     21.371     1.5423    0.19929                                 2298100200175 
     22.032     1.7712                                            2298100200176 
      22.37      2.034                                            2298100200177 
     23.774     2.0813                                            2298100200178 
     24.139     2.7448                                            2298100200179 
     24.146     9.5342                                            2298100200180 
     24.512     4.6648                                            2298100200181 
     24.514     7.0647                                            2298100200182 
     24.518     13.167                                            2298100200183 
     24.519     19.042                                            2298100200184 
      24.52     22.899                                            2298100200185 
     24.522     30.903                                            2298100200186 
     24.525        55.                                            2298100200187 
     24.899     42.678                                            2298100200188 
     24.902     75.956                                            2298100200189 
     25.655     3.7905                                            2298100200190 
     25.658     5.7406                                            2298100200191 
     25.659     7.7471                                            2298100200192 
     25.662     12.286                                            2298100200193 
     25.664      19.94                                            2298100200194 
     25.667     33.889                                            2298100200195 
     25.669      49.01                                            2298100200196 
     25.671      63.16                                            2298100200197 
     26.046     2.5613                                            2298100200198 
     26.048     3.3007                                            2298100200199 
     26.054     10.217                                            2298100200200 
     27.681     2.8086                                            2298100200201 
     28.104     2.3355    0.30177                                 2298100200202 
     28.973     2.8741                                            2298100200203 
     28.975     3.7903                                            2298100200204 
      29.42     4.9985                                            2298100200205 
     29.421     5.8741                                            2298100200206 
     29.874       7.57                                            2298100200207 
     30.333     8.6931                                            2298100200208 
     30.334     11.464                                            2298100200209 
     30.334     10.216                                            2298100200210 
     31.272     13.165                                            2298100200211 
     31.752     15.471                                            2298100200212 
     31.753     17.767                                            2298100200213 
     31.755     21.366                                            2298100200214 
     31.762     64.626                                            2298100200215 
     32.242     25.108                                            2298100200216 
     32.244     30.899                                            2298100200217 
     32.245     36.312                                            2298100200218 
     32.246     44.687                                            2298100200219 
     32.247     53.739                                            2298100200220 
     32.744     77.717                                            2298100200221 
     32.746     97.872                                            2298100200222 
     32.749     144.84                                            2298100200223 
     33.255     282.69                                            2298100200224 
      33.26     605.04                                            2298100200225 
     33.264  1.0283E+3                                            2298100200226 
     33.266  1.3561E+3                                            2298100200227 
     33.267  1.4532E+3                                            2298100200228 
     33.767     408.83                                            2298100200229 
     33.773     855.06                                            2298100200230 
     34.261     16.201                                            2298100200231 
     34.261     14.437                                            2298100200232 
     34.266     31.619                                            2298100200233 
     34.271      58.93                                            2298100200234 
     34.276     112.39                                            2298100200235 
      34.28     200.03                                            2298100200236 
     34.788     18.605                                            2298100200237 
     34.789     23.976                                            2298100200238 
      34.79     26.906                                            2298100200239 
     34.793     40.748                                            2298100200240 
     34.795     50.146                                            2298100200241 
     34.799     83.281                                            2298100200242 
     35.314     7.9266                                            2298100200243 
     35.316     9.5324                                            2298100200244 
     35.317     10.947                                            2298100200245 
     35.318     13.164                                            2298100200246 
     35.849     3.3772                                            2298100200247 
     35.851      4.253                                            2298100200248 
     35.852     4.8841                                            2298100200249 
     35.853     5.6088                                            2298100200250 
     35.854     6.5913                                            2298100200251 
     37.524     3.8782                                            2298100200252 
     38.095     2.5608                                            2298100200253 
     38.097     3.0093                                            2298100200254 
     38.684     4.7726                                            2298100200255 
     38.686     6.1505                                            2298100200256 
     39.275     3.5364                                            2298100200257 
     39.872      1.987                                            2298100200258 
     39.873     2.2819                                            2298100200259 
     40.481     1.6908                                            2298100200260 
     43.679     1.5067                                            2298100200261 
      43.68     1.8119                                            2298100200262 
     45.027     1.3739                                            2298100200263 
     45.715     1.2243                                            2298100200264 
     46.413    0.92833    0.20798                                 2298100200265 
     47.848     1.0909                                            2298100200266 
     48.579    0.80836    0.26215                                 2298100200267 
     49.328     1.3119                                            2298100200268 
     50.853     1.4722    0.21846                                 2298100200269 
      52.42     1.1163                                            2298100200270 
     54.048     2.2815    0.29479                                 2298100200271 
     54.057     5.3549                                            2298100200272 
     54.062     8.1098                                            2298100200273 
     54.068     13.162                                            2298100200274 
     54.079      37.15                                            2298100200275 
     54.893     9.7527                                            2298100200276 
     54.899     16.962                                            2298100200277 
     54.901     19.478                                            2298100200278 
     54.906     30.187                                            2298100200279 
      55.71     1.2527                                            2298100200280 
     55.712     1.4721                                            2298100200281 
     55.725      4.663                                            2298100200282 
     55.735     10.451                                            2298100200283 
     55.739      14.77                                            2298100200284 
     55.743     21.858                                            2298100200285 
     55.746     26.287                                            2298100200286 
     55.751     41.689                                            2298100200287 
     56.567       1.73     0.2567                                 2298100200288 
     56.575     3.3764                                            2298100200289 
     56.582     5.8722                                            2298100200290 
     58.309     1.0908    0.20443                                 2298100200291 
     60.105    0.77185     0.2622                                 2298100200292 
     60.108     0.9947    0.36749                                 2298100200293 
     60.111     1.2527                                            2298100200294 
     60.113     1.4385                                            2298100200295 
     63.879     1.0416                                            2298100200296 
     63.884     1.5415    0.22873                                 2298100200297 
      64.86     1.2241                                            2298100200298 
     66.877     3.2992                                            2298100200299 
      66.88     4.0601                                            2298100200300 
     67.891      1.472      0.425                                 2298100200301 
     67.908     4.8826                                            2298100200302 
     67.911     6.1488                                            2298100200303 
     67.917     8.8924                                            2298100200304 
     68.933     1.6904                                            2298100200305 
     68.938     2.3345                                            2298100200306 
      68.94     2.7434                                            2298100200307 
     68.953     6.7429                                            2298100200308 
      68.96     10.694                                            2298100200309 
     69.985      1.224                                            2298100200310 
     71.074     3.7023                                            2298100200311 
     71.077     4.6624                                            2298100200312 
     72.143    0.99461                                            2298100200313 
     72.154     2.0802                                            2298100200314 
     73.254     1.3736                                            2298100200315 
     76.688     3.3759                                            2298100200316 
     76.693     4.6622                                            2298100200317 
     76.701      7.743                                            2298100200318 
     76.704     8.8919                                            2298100200319 
     76.706     10.449                                            2298100200320 
     76.729      43.65                                            2298100200321 
     77.858     2.5015                                            2298100200322 
     77.887     14.767                                            2298100200323 
     77.891     18.173                                            2298100200324 
     77.895      23.42                                            2298100200325 
     77.897     26.895                                            2298100200326 
       77.9     32.344                                            2298100200327 
     77.903     37.143                                            2298100200328 
      79.06     4.2514                                            2298100200329 
     79.064     5.2319                                            2298100200330 
     80.259     1.9411                                            2298100200331 
     80.266     2.9397                                            2298100200332 
     81.482     1.3116                                            2298100200333 
     81.486     1.6903                                            2298100200334 
     84.007     2.1782                                            2298100200335 
     84.011     2.6195                                            2298100200336 
     85.314     6.2916                                            2298100200337 
     85.323     10.449                                            2298100200338 
     85.328     13.466                                            2298100200339 
     85.333     18.173                                            2298100200340 
     85.346     38.008                                            2298100200341 
     85.351     50.124                                            2298100200342 
     86.625     7.5661                                            2298100200343 
     87.941     4.0596                                            2298100200344 
     87.977     28.163                                            2298100200345 
     89.295     5.7371                                            2298100200346 
     89.309     12.279                                            2298100200347 
     90.688     20.393                                            2298100200348 
     90.691     23.965                                            2298100200349 
       90.7     38.893                                            2298100200350 
     90.709     61.682                                            2298100200351 
     90.726     148.15                                            2298100200352 
     90.738     282.55                                            2298100200353 
     92.085     30.884                                            2298100200354 
     92.105     83.242                                            2298100200355 
     92.122     199.93                                            2298100200356 
     93.465     6.2913                                            2298100200357 
     93.467     6.8992                                            2298100200358 
     93.475      10.21                                            2298100200359 
     93.483     15.824                                            2298100200360 
     94.888     3.8765                                            2298100200361 
     94.891     4.5555                                            2298100200362 
     96.331     2.2809                                            2298100200363 
      96.34     3.4543                                            2298100200364 
     97.803     1.8534                                            2298100200365 
     97.809     2.5013                                            2298100200366 
      99.31     2.8069                                            2298100200367 
     102.37     1.6139                                            2298100200368 
     103.95     3.2985                                            2298100200369 
     103.96     4.7703                                            2298100200370 
     105.53     2.1283                                            2298100200371 
     107.15     1.8966                                            2298100200372 
      108.8     2.8722                                            2298100200373 
     110.46     2.5011                                            2298100200374 
     110.48     4.3499                                            2298100200375 
     112.15      1.577                                            2298100200376 
     112.16     3.1497                                            2298100200377 
     112.18     6.5876                                            2298100200378 
     112.18     5.8703                                            2298100200379 
     115.61     1.3733                                            2298100200380 
     115.62     2.0797                                            2298100200381 
     115.64     4.6613                                            2298100200382 
     119.17     1.2237                                            2298100200383 
       121.     1.5059                                            2298100200384 
     121.02     3.0778                                            2298100200385 
     122.86     1.7697                                            2298100200386 
     124.77     4.4511                                            2298100200387 
     124.77     5.1115                                            2298100200388 
     124.79     8.1065                                            2298100200389 
     126.66     2.1778                                            2298100200390 
     126.69     6.8981                                            2298100200391 
     128.58     1.0413                                            2298100200392 
     128.59     1.3419                                            2298100200393 
     128.62     3.5344                                            2298100200394 
     132.57     1.6513                                            2298100200395 
     136.67     2.0322                                            2298100200396 
      136.7     6.7406                                            2298100200397 
     136.71     7.9214                                            2298100200398 
     138.78     3.6167                                            2298100200399 
     138.78     3.0776                                            2298100200400 
     140.87     1.0412                                            2298100200401 
      140.9     2.6799                                            2298100200402 
     140.91     4.0586                                            2298100200403 
     140.92     4.9947                                            2298100200404 
     140.95     13.776                                            2298100200405 
     143.04     1.5058                                            2298100200406 
     143.05     1.8108                                            2298100200407 
     145.23     1.2521                                            2298100200408 
     145.27     5.8695                                            2298100200409 
     147.44    0.88599                                            2298100200410 
     147.47     2.3336                                            2298100200411 
     147.51     7.2232                                            2298100200412 
      149.8     20.863                                            2298100200413 
     149.81     26.887                                            2298100200414 
     149.82     36.285                                            2298100200415 
     152.04     3.7009                                            2298100200416 
     152.09     15.107                                            2298100200417 
     154.34     1.6136                                            2298100200418 
     154.35     1.9405                                            2298100200419 
     154.36     2.6798                                            2298100200420 
     154.38      5.111                                            2298100200421 
      156.7     1.0654                                            2298100200422 
     156.73     3.1492                                            2298100200423 
     156.74     4.5544                                            2298100200424 
     156.76     6.4364                                            2298100200425 
     156.76     7.9209                                            2298100200426 
      159.1     1.2521                                            2298100200427 
     161.58     4.0584                                            2298100200428 
     164.04     2.3879                                            2298100200429 
     169.12     3.2226                                            2298100200430 
     171.69     2.0793                                            2298100200431 
     174.31      1.373                                            2298100200432 
     174.33     2.7422                                            2298100200433 
      179.7     1.5767                                            2298100200434 
     179.74     4.9941                                            2298100200435 
     179.75     6.7397                                            2298100200436 
     179.76     9.3077                                            2298100200437 
     182.53     14.096                                            2298100200438 
     182.54     16.565                                            2298100200439 
     182.55     21.846                                            2298100200440 
     185.26     2.4435                                            2298100200441 
     185.34     18.589                                            2298100200442 
     188.09     1.9855                                            2298100200443 
     188.11     3.2976                                            2298100200444 
     188.12     4.3487                                            2298100200445 
     191.02     6.0056                                            2298100200446 
     193.89     1.4049                                            2298100200447 
     193.93     3.7868                                            2298100200448 
     196.87     1.6134                                            2298100200449 
     196.89      2.806                                            2298100200450 
     199.85    0.71984                                            2298100200451 
     199.93     5.3515                                            2298100200452 
     199.96     9.0951                                            2298100200453 
     202.93     1.1955                                            2298100200454 
     206.04     1.0173                                            2298100200455 
      206.1     4.1526                                            2298100200456 
     212.42     1.5406                                            2298100200457 
     218.96    0.94927    0.22945                                 2298100200458 
     218.96     1.1416    0.33379                                 2298100200459 
     222.33     1.3415                                            2298100200460 
     222.39     4.6598                                            2298100200461 
     225.75     1.7288                                            2298100200462 
     225.76     2.3876                                            2298100200463 
     225.76     2.0791                                            2298100200464 
     225.81     6.0052                                            2298100200465 
     229.25     4.2492                                            2298100200466 
     232.69    0.88579    0.48136                                 2298100200467 
     232.69     1.0652    0.36185                                 2298100200468 
     239.89      1.281                                            2298100200469 
      239.9     1.5405                                            2298100200470 
     243.55    0.97136    0.26799                                 2298100200471 
     243.59     1.8526                                            2298100200472 
     247.36     3.8747                                            2298100200473 
     251.19     8.8868                                            2298100200474 
     251.21      11.72                                            2298100200475 
     254.93     1.1155                                            2298100200476 
     254.99     3.1485                                            2298100200477 
     255.01     4.8794                                            2298100200478 
     255.02     5.6035                                            2298100200479 
     255.07     13.772                                            2298100200480 
     258.85      1.471                                            2298100200481 
     258.86     1.7287                                            2298100200482 
     258.95     8.1037                                            2298100200483 
     258.98     15.816                                            2298100200484 
     262.81      1.281                                            2298100200485 
     262.84     2.0315                                            2298100200486 
     262.85     2.7416                                            2298100200487 
     262.85     2.3874                                            2298100200488 
     266.91      4.348                                            2298100200489 
     275.14     3.6998                                            2298100200490 
     275.16     5.1095                                            2298100200491 
     275.18      7.221                                            2298100200492 
     275.21     11.452                                            2298100200493 
      279.3     1.5053                                            2298100200494 
     279.35     3.0766                                            2298100200495 
     279.41     8.6838                                            2298100200496 
     279.43     13.458                                            2298100200497 
      283.6     1.8102                                            2298100200498 
     283.61     2.3329                                            2298100200499 
     292.43     5.7338                                            2298100200500 
      296.9     4.8791                                            2298100200501 
     296.96     14.093                                            2298100200502 
     301.39     2.0788                                            2298100200503 
     301.42     3.2968                                            2298100200504 
     301.44     4.0571                                            2298100200505 
     301.47     6.4344                                            2298100200506 
     305.99     1.5763                                            2298100200507 
     306.11     9.5224                                            2298100200508 
     306.14     15.454                                            2298100200509 
     310.67     1.3726                                            2298100200510 
     315.43     1.1952    0.50799                                 2298100200511 
     330.19     2.0313                                            2298100200512 
     335.22     1.3725     0.4869                                 2298100200513 
     340.35     1.1952    0.62374                                 2298100200514 
     340.41     2.8052                                            2298100200515 
     345.71     8.6829                                            2298100200516 
     345.76      16.56                                            2298100200517 
     350.89       1.81                                            2298100200518 
     350.96     4.5526                                            2298100200519 
     350.97     5.2281                                            2298100200520 
     350.98      5.867                                            2298100200521 
     350.99     6.8947                                            2298100200522 
     351.04      13.77                                            2298100200523 
     356.23     1.0407                                            2298100200524 
     356.28     2.1271                                            2298100200525 
     356.31     3.3734                                            2298100200526 
     361.71     1.5402                                            2298100200527 
     361.75     2.4427                                            2298100200528 
     361.79     3.8739                                            2298100200529 
     372.83    0.71962                                            2298100200530 
     372.87     1.1951                                            2298100200531 
     372.94      3.006                                            2298100200532 
       373.     6.4337                                            2298100200533 
     378.68     4.3473                                            2298100200534 
     384.36    0.90624    0.41999                                 2298100200535 
     384.47     3.5325                                            2298100200536 
     384.54     8.6824                                            2298100200537 
     390.31     1.8954                                            2298100200538 
     390.43     7.7369                                            2298100200539 
      396.2    0.61234                                            2298100200540 
     396.28     1.5761                                            2298100200541 
     396.31     2.2793                                            2298100200542 
     396.32     2.6786                                            2298100200543 
     402.29    0.78912    0.32481                                 2298100200544 
     402.31      1.017                                            2298100200545 
      408.5     1.3106                                            2298100200546 
     408.63     6.0034                                            2298100200547 
     414.92     8.2908                                            2298100200548 
     421.24     5.3496                                            2298100200549 
      421.3     10.203                                            2298100200550 
     427.58     1.5401    0.49943                                 2298100200551 
      427.6     1.8521                                            2298100200552 
     427.66     3.5323                                            2298100200553 
     434.17     2.2273                                            2298100200554 
     440.89     4.3469                                            2298100200555 
     440.92     6.4332                                            2298100200556 
     440.95     8.8843                                            2298100200557 
     447.59     2.6174                                            2298100200558 
     454.51     4.8781                                            2298100200559 
     454.53     5.6019                                            2298100200560 
     461.37     1.6503    0.48254                                 2298100200561 
     461.44     3.1476                                            2298100200562 
     468.53     3.7852                                            2298100200563 
     468.59     7.0546                                            2298100200564 
     475.58     1.0406     0.5544                                 2298100200565 
     490.28     1.2514     0.6667                                 2298100200566 
     505.45       1.54    0.88385                                 2298100200567 
     513.18     1.3723    0.35542                                 2298100200568 
     513.22     1.9846     1.1193                                 2298100200569 
     513.28     3.2959                                            2298100200570 
     537.25     3.6986                                            2298100200571 
     537.28     4.6578                                            2298100200572 
      545.4     1.7684     1.1838                                 2298100200573 
     545.45     2.7406                                            2298100200574 
     545.53     5.6014                                            2298100200575 
     545.56      7.054                                            2298100200576 
     553.72     1.2805                                            2298100200577 
     553.79     2.3865                                            2298100200578 
     562.31     3.1473                                            2298100200579 
     562.34     4.1505                                            2298100200580 
     562.42     8.1006                                            2298100200581 
     571.02     6.5824                                            2298100200582 
     579.59     1.5399                                            2298100200583 
     579.62     2.0307                                            2298100200584 
     588.43      1.141                                            2298100200585 
     588.62     4.9912                                            2298100200586 
     606.71      2.499                                            2298100200587 
     606.82     6.0023                                            2298100200588 
     616.03     2.8698                                            2298100200589 
     625.36     1.3409                                            2298100200590 
     634.99     1.8949                                            2298100200591 
     635.17     6.7356                                            2298100200592 
      644.7     1.5398                                            2298100200593 
      644.8     3.2956                                            2298100200594 
     654.51    0.92713    0.62062                                 2298100200595 
     654.54     1.1676    0.79897                                 2298100200596 
     654.63     2.2788                                            2298100200597 
     674.87     2.6168                                            2298100200598 
     674.94      4.247    0.86035                                 2298100200599 
     695.76     3.6982                                            2298100200600 
     706.27     1.3408                                            2298100200601 
     706.32     1.8516                                            2298100200602 
      706.4     3.0752                                            2298100200603 
     717.12     1.5756                                            2298100200604 
     728.19     2.6168                                            2298100200605 
     739.14    0.68696    0.22277                                 2298100200606 
     739.23     1.1947    0.59655                                 2298100200607 
     739.32     2.1759                                            2298100200608 
     739.39     3.4509     1.5398                                 2298100200609 
     750.75     4.0553    0.60173                                 2298100200610 
      762.2     2.9365                                            2298100200611 
      773.7    0.94868     0.4951                                 2298100200612 
     773.77     1.5046                                            2298100200613 
     785.61     1.3101                                            2298100200614 
     785.67     1.8515                                            2298100200615 
     809.84     1.0894    0.37009                                 2298100200616 
     809.97     2.2785                                            2298100200617 
     810.05     3.7842                                            2298100200618 
     822.44     3.1467                                            2298100200619 
      834.9     1.4039                                            2298100200620 
     834.92     1.6123                                            2298100200621 
     860.59    0.84533                                            2298100200622 
     873.97      2.386                                            2298100200623 
      874.1     4.7654                                            2298100200624 
     887.31     1.8092    0.74468                                 2298100200625 
     901.05     3.8722                                            2298100200626 
      914.8     2.8039                                            2298100200627 
     914.83      3.295                                            2298100200628 
     928.61     0.9486                                            2298100200629 
     943.18     5.2256                                            2298100200630 
     957.48     2.4985                                            2298100200631 
     987.02      2.126     1.2808                                 2298100200632 
     987.14     3.7838    0.76652                                 2298100200633 
  1.0021E+3     1.8091                                            2298100200634 
  1.0174E+3     1.5044                                            2298100200635 
  1.0331E+3     2.4414      1.896                                 2298100200636 
  1.0488E+3     1.2801                                            2298100200637 
  1.1147E+3     2.0301                                            2298100200638 
  1.1491E+3     1.4365    0.62934                                 2298100200639 
  1.1666E+3     1.1672    0.52634                                 2298100200640 
  1.1847E+3     2.3856                                            2298100200641 
  1.2027E+3      1.612                                            2298100200642 
  1.2029E+3     3.5306    0.61844                                 2298100200643 
  1.2029E+3     3.1461    0.27722                                 2298100200644 
  1.2211E+3     1.3404    0.76932                                 2298100200645 
  1.2589E+3       2.03    0.91537                                 2298100200646 
  1.2978E+3      1.688    0.78228                                 2298100200647 
  1.3378E+3     1.4036    0.83254                                 2298100200648 
  1.3584E+3     2.1257                                            2298100200649 
  1.3585E+3      2.677                                            2298100200650 
  1.4004E+3     2.3311                                            2298100200651 
  1.4217E+3     1.6118    0.92511                                 2298100200652 
  1.4218E+3      1.851                                            2298100200653 
  1.5110E+3     2.1752                                            2298100200654 
  1.5340E+3     1.4363                                            2298100200655 
  1.5341E+3     1.7675    0.65302                                 2298100200656 
  1.5816E+3     2.8031                                            2298100200657 
  1.6056E+3     1.2798     1.1463                                 2298100200658 
  1.6058E+3     2.4979                                            2298100200659 
  1.6303E+3      1.575     1.2824                                 2298100200660 
  1.6306E+3       3.53    0.91548                                 2298100200661 
  1.6551E+3    0.92672    0.35571                                 2298100200662 
  1.6551E+3     1.0642    0.66939                                 2298100200663 
  1.6553E+3     1.9834     1.0204                                 2298100200664 
  1.7324E+3     1.2221    0.59593                                 2298100200665 
  1.7591E+3     1.6493                                            2298100200666 
  1.7859E+3     1.0399                                            2298100200667 
  1.7861E+3     1.9834                                            2298100200668 
  1.8134E+3     1.4361    0.79538                                 2298100200669 
  1.8414E+3      2.556                                            2298100200670 
  1.8696E+3     2.2257                                            2298100200671 
  1.8984E+3     3.2938       1.05                                 2298100200672 
  1.9270E+3     1.1404    0.55606                                 2298100200673 
  1.9863E+3    0.68663                                            2298100200674 
  1.9867E+3     1.4696                                            2298100200675 
  1.9869E+3      2.385                                            2298100200676 
  1.9869E+3     2.9351                                            2298100200677 
  2.0172E+3     2.0295     1.4316                                 2298100200678 
  2.0174E+3     3.2937    0.95096                                 2298100200679 
  2.0793E+3     1.1143     0.8925                                 2298100200680 
  2.3844E+3     1.5388     1.0417                                 2298100200681 
  3.2815E+3     1.2794     1.1225                                 2298100200682 
  4.5162E+3     1.1937     1.1904                                 2298100200683 
  6.0292E+3     1.0884      1.351                                 2298100200684 
  8.2977E+3    0.99231     1.5035                                 2298100200685 
ENDDATA            671          0                                 2298100200686 
ENDSUBENT          685          0                                 2298100299999 
ENDENTRY             2          0                                 2298199999999 
