ENTRY            23750   20220623                             23122375000000001 
SUBENT        23750001   20220623                             23122375000100001 
BIB                 12         35                                 2375000100002 
TITLE      Measurements of neutron capture cross-sections of      2375000100003 
            161Dy and 163Dy between 0.003 eV and 10 keV using a   2375000100004 
            total energy absorption detector                      2375000100005 
AUTHOR     (G.N.Kim, Y.S.Lee, I.S.Ko, M.H.Cho, W.Namkung,         2375000100006 
            T.I.Ro, Y.K.Min, S.Y.Lee, S.Yamamoto, K.Kobayashi,    2375000100007 
            Y.Fujita)                                             2375000100008 
INSTITUTE  (3KORKNU,3KORPUE,2JPNKTO)                              2375000100009 
           (3KORKOR) Dong-A University, Busan                     2375000100010 
REFERENCE  (C,2002BRUSS,,613,2002)                                2375000100011 
           ((S,ISINN-10,283,2003)=(S,JINR-E3-2003-10,2003))       2375000100012 
FACILITY   (LINAC,2JPNKTO) KURRI 46 MeV electron linac            2375000100013 
INC-SOURCE (PHOTO) 30 MeV electrons on 12 sheets of Ta plates     2375000100014 
            (5 cm diam., 2.9 cm effective thickness) followed by  2375000100015 
            water tank (30 cm diam., 10 cm thick) moderator.      2375000100016 
SAMPLE     - Sm metal plate (natural, 99.8% purity, 0.5 mm thick, 2375000100017 
              1.807 at/kb, 1.8x1.8 cm2) for flux determination    2375000100018 
           - B powder (enriched to 10B at 96.98%), 8.0 mm thick,  2375000100019 
              52.42 at/kb, 1.8x1.8 cm2) for flux determination    2375000100020 
           - C graphite plate (natural, 99.9% purity,             2375000100021 
              10.00 mm thick, 24.61 at/kb, 1.8x1.8 cm2)           2375000100022 
DETECTOR   (BGO) 12 BGO scintillators (5 cm x 5 cm, 7.5 cm for    2375000100023 
            each)                                                 2375000100024 
METHOD     Total energy absorption                                2375000100025 
           (TOF) Flight path of 12.70+/-0.02 m and 135 deg with   2375000100026 
            respect to the electron beam line.                    2375000100027 
           - Low energy mode (En < 10 eV):                        2375000100028 
              Repetition rate of 30 Hz, pulse width of 3 usec,    2375000100029 
              peak current of 0.5 A.                              2375000100030 
           - High energy mode (En > 1 eV):                        2375000100031 
              Repetition rate of 200 Hz, pulse width of 0.1 usec, 2375000100032 
              peak current of 3 A.                                2375000100033 
CORRECTION Corrected for self-shielding                           2375000100034 
STATUS     (TABLE) Data received from Guinyun Kim                 2375000100035 
HISTORY    (20220624R) On. Received by email from Guinyun Kim.    2375000100036 
           (20220624C) On                                         2375000100037 
ENDBIB              35          0                                 2375000100038 
NOCOMMON             0          0                                 2375000100039 
ENDSUBENT           38          0                                 2375000199999 
SUBENT        23750002   20220623                             23122375000200001 
BIB                  2          8                                 2375000200002 
REACTION   (66-DY-161(N,G)66-DY-162,,SIG,,TTA)                    2375000200003 
SAMPLE     Dy metal (enriched to 161Dy at 95.66%, 0.21 mm thick,  2375000200004 
            0.636 at/kb, 1.0 cm diam.)                            2375000200005 
           (66-DY-161,ENR=0.9566)                                 2375000200006 
           (66-DY-160,ENR=0.0035)                                 2375000200007 
           (66-DY-162,ENR=0.0253)                                 2375000200008 
           (66-DY-163,ENR=0.0090)                                 2375000200009 
           (66-DY-164,ENR=0.0056)                                 2375000200010 
ENDBIB               8          0                                 2375000200011 
COMMON               1          3                                 2375000200012 
THICKNESS                                                         2375000200013 
ATOMS/B                                                           2375000200014 
  0.636E-03                                                       2375000200015 
ENDCOMMON            3          0                                 2375000200016 
DATA                 2        444                                 2375000200017 
EN         DATA                                                   2375000200018 
EV         B                                                      2375000200019 
 3.1700E-03 1644.5339                                             2375000200020 
 3.2300E-03 1743.0481                                             2375000200021 
 3.2900E-03 1767.2221                                             2375000200022 
 3.3500E-03 1713.5034                                             2375000200023 
 3.4100E-03 1595.7068                                             2375000200024 
 3.4700E-03 1556.5284                                             2375000200025 
 3.5300E-03 1587.5242                                             2375000200026 
 3.6000E-03 1653.6025                                             2375000200027 
 3.6600E-03 1646.5534                                             2375000200028 
 3.7300E-03 1677.3677                                             2375000200029 
 3.8000E-03 1412.5867                                             2375000200030 
 3.8700E-03 1513.4746                                             2375000200031 
 3.9400E-03 1656.5646                                             2375000200032 
 4.0100E-03 1503.3599                                             2375000200033 
 4.0900E-03 1558.7712                                             2375000200034 
 4.1600E-03 1543.7338                                             2375000200035 
 4.2400E-03 1600.6863                                             2375000200036 
 4.3200E-03 1504.0403                                             2375000200037 
 4.3900E-03 1516.1743                                             2375000200038 
 4.4800E-03 1502.9448                                             2375000200039 
 4.5600E-03 1398.2606                                             2375000200040 
 4.6400E-03 1623.8089                                             2375000200041 
 4.7300E-03 1474.1480                                             2375000200042 
 4.8100E-03 1513.6213                                             2375000200043 
 4.9000E-03 1490.2234                                             2375000200044 
 4.9900E-03 1403.2493                                             2375000200045 
 5.0800E-03 1366.9640                                             2375000200046 
 5.1800E-03 1334.7901                                             2375000200047 
 5.2700E-03 1389.6566                                             2375000200048 
 5.3700E-03 1353.1715                                             2375000200049 
 5.4700E-03 1412.2743                                             2375000200050 
 5.5700E-03 1358.4764                                             2375000200051 
 5.6700E-03 1280.3652                                             2375000200052 
 5.7700E-03 1308.2081                                             2375000200053 
 5.8800E-03 1365.7564                                             2375000200054 
 5.9900E-03 1312.5090                                             2375000200055 
 6.1000E-03 1278.3199                                             2375000200056 
 6.2100E-03 1313.9612                                             2375000200057 
 6.3200E-03 1268.1250                                             2375000200058 
 6.4400E-03 1259.3314                                             2375000200059 
 6.5600E-03 1272.4574                                             2375000200060 
 6.6800E-03 1246.7999                                             2375000200061 
 6.8000E-03 1252.0988                                             2375000200062 
 6.9200E-03 1247.8906                                             2375000200063 
 7.0500E-03 1210.0609                                             2375000200064 
 7.1800E-03 1210.9452                                             2375000200065 
 7.3100E-03 1201.9460                                             2375000200066 
 7.4500E-03 1163.9959                                             2375000200067 
 7.5800E-03 1190.0163                                             2375000200068 
 7.7200E-03 1178.8620                                             2375000200069 
 7.8600E-03 1176.7223                                             2375000200070 
 8.0100E-03 1149.7283                                             2375000200071 
 8.1500E-03 1168.3900                                             2375000200072 
 8.3000E-03 1122.0004                                             2375000200073 
 8.4600E-03 1097.5979                                             2375000200074 
 8.6100E-03 1143.1182                                             2375000200075 
 8.7700E-03 1087.7262                                             2375000200076 
 8.9300E-03 1060.6317                                             2375000200077 
 9.0900E-03 1080.4155                                             2375000200078 
 9.2600E-03 1046.5556                                             2375000200079 
 9.4300E-03 1048.9855                                             2375000200080 
 9.6000E-03 1066.1812                                             2375000200081 
 9.7800E-03 1052.5748                                             2375000200082 
 9.9600E-03 1033.7408                                             2375000200083 
 1.0140E-02 1060.2998                                             2375000200084 
 1.0330E-02 1016.0385                                             2375000200085 
 1.0520E-02  994.0042                                             2375000200086 
 1.0710E-02 1004.5201                                             2375000200087 
 1.0910E-02  965.9603                                             2375000200088 
 1.1110E-02  959.6121                                             2375000200089 
 1.1310E-02  960.6310                                             2375000200090 
 1.1520E-02  931.1497                                             2375000200091 
 1.1730E-02  926.0808                                             2375000200092 
 1.1950E-02  945.2283                                             2375000200093 
 1.2170E-02  921.2775                                             2375000200094 
 1.2390E-02  930.6681                                             2375000200095 
 1.2620E-02  907.0753                                             2375000200096 
 1.2850E-02  914.1046                                             2375000200097 
 1.3080E-02  894.6386                                             2375000200098 
 1.3320E-02  902.5306                                             2375000200099 
 1.3570E-02  883.0931                                             2375000200100 
 1.3820E-02  871.4446                                             2375000200101 
 1.4070E-02  855.9858                                             2375000200102 
 1.4330E-02  852.9978                                             2375000200103 
 1.4590E-02  836.7951                                             2375000200104 
 1.4860E-02  824.8145                                             2375000200105 
 1.5130E-02  826.9470                                             2375000200106 
 1.5410E-02  829.5009                                             2375000200107 
 1.5690E-02  817.3119                                             2375000200108 
 1.5980E-02  815.9052                                             2375000200109 
 1.6270E-02  810.6402                                             2375000200110 
 1.6570E-02  794.0013                                             2375000200111 
 1.6880E-02  783.8473                                             2375000200112 
 1.7190E-02  787.3514                                             2375000200113 
 1.7500E-02  770.2529                                             2375000200114 
 1.7820E-02  760.3903                                             2375000200115 
 1.8150E-02  769.3902                                             2375000200116 
 1.8480E-02  750.2366                                             2375000200117 
 1.8820E-02  744.1219                                             2375000200118 
 1.9170E-02  737.9206                                             2375000200119 
 1.9520E-02  735.4598                                             2375000200120 
 1.9880E-02  722.0778                                             2375000200121 
 2.0240E-02  713.6186                                             2375000200122 
 2.0610E-02  704.8274                                             2375000200123 
 2.0990E-02  709.1118                                             2375000200124 
 2.1380E-02  705.1553                                             2375000200125 
 2.1770E-02  688.6733                                             2375000200126 
 2.2170E-02  693.0050                                             2375000200127 
 2.2570E-02  676.7024                                             2375000200128 
 2.2990E-02  674.9272                                             2375000200129 
 2.3410E-02  663.5753                                             2375000200130 
 2.3840E-02  659.8645                                             2375000200131 
 2.4280E-02  659.9476                                             2375000200132 
 2.4720E-02  648.1666                                             2375000200133 
 2.5300E-02  644.6024                                             2375000200134 
 2.5640E-02  635.4955                                             2375000200135 
 2.6110E-02  630.9337                                             2375000200136 
 2.6590E-02  621.1833                                             2375000200137 
 2.7080E-02  618.7012                                             2375000200138 
 2.7570E-02  608.5156                                             2375000200139 
 2.8080E-02  605.8013                                             2375000200140 
 2.8590E-02  604.6869                                             2375000200141 
 2.9120E-02  597.5810                                             2375000200142 
 2.9650E-02  596.8304                                             2375000200143 
 3.0200E-02  586.7118                                             2375000200144 
 3.0750E-02  578.9943                                             2375000200145 
 3.1310E-02  579.7993                                             2375000200146 
 3.1890E-02  569.8517                                             2375000200147 
 3.2470E-02  563.0932                                             2375000200148 
 3.3070E-02  557.5807                                             2375000200149 
 3.3680E-02  553.5950                                             2375000200150 
 3.4290E-02  548.3996                                             2375000200151 
 3.4920E-02  547.7524                                             2375000200152 
 3.5560E-02  535.3471                                             2375000200153 
 3.6220E-02  531.5809                                             2375000200154 
 3.6880E-02  530.5638                                             2375000200155 
 3.7560E-02  527.6177                                             2375000200156 
 3.8250E-02  520.6618                                             2375000200157 
 3.8950E-02  514.9659                                             2375000200158 
 3.9660E-02  507.7342                                             2375000200159 
 4.0390E-02  509.7734                                             2375000200160 
 4.1130E-02  502.1196                                             2375000200161 
 4.1890E-02  495.3718                                             2375000200162 
 4.2660E-02  491.9669                                             2375000200163 
 4.3440E-02  488.8267                                             2375000200164 
 4.4240E-02  481.5100                                             2375000200165 
 4.5050E-02  477.3154                                             2375000200166 
 4.5870E-02  473.5810                                             2375000200167 
 4.6720E-02  468.7399                                             2375000200168 
 4.7570E-02  461.9819                                             2375000200169 
 4.8450E-02  460.7901                                             2375000200170 
 4.9330E-02  459.6123                                             2375000200171 
 5.0240E-02  453.3451                                             2375000200172 
 5.1160E-02  446.1389                                             2375000200173 
 5.2100E-02  447.6936                                             2375000200174 
 5.3060E-02  438.8004                                             2375000200175 
 5.4030E-02  434.2707                                             2375000200176 
 5.5020E-02  434.4691                                             2375000200177 
 5.6030E-02  427.0412                                             2375000200178 
 5.7060E-02  424.5126                                             2375000200179 
 5.8100E-02  421.3116                                             2375000200180 
 5.9170E-02  421.6208                                             2375000200181 
 6.0260E-02  412.3259                                             2375000200182 
 6.1360E-02  407.8212                                             2375000200183 
 6.2490E-02  402.8974                                             2375000200184 
 6.3630E-02  399.2255                                             2375000200185 
 6.4800E-02  395.2251                                             2375000200186 
 6.5990E-02  390.6538                                             2375000200187 
 6.7200E-02  391.5104                                             2375000200188 
 6.8440E-02  384.0888                                             2375000200189 
 6.9690E-02  378.1897                                             2375000200190 
 7.0970E-02  373.8811                                             2375000200191 
 7.2270E-02  371.7253                                             2375000200192 
 7.3600E-02  368.9782                                             2375000200193 
 7.4950E-02  364.9758                                             2375000200194 
 7.6320E-02  359.0863                                             2375000200195 
 7.7720E-02  355.3366                                             2375000200196 
 7.9150E-02  354.6878                                             2375000200197 
 8.0600E-02  349.8580                                             2375000200198 
 8.2080E-02  343.1962                                             2375000200199 
 8.3590E-02  343.4004                                             2375000200200 
 8.5120E-02  337.0355                                             2375000200201 
 8.6680E-02  336.7753                                             2375000200202 
 8.8270E-02  333.8332                                             2375000200203 
 8.9890E-02  331.2190                                             2375000200204 
 9.1540E-02  321.5386                                             2375000200205 
 9.3220E-02  321.4064                                             2375000200206 
 9.4930E-02  316.5499                                             2375000200207 
 9.6670E-02  313.6822                                             2375000200208 
 9.8450E-02  306.7958                                             2375000200209 
 1.0025E-01  309.7480                                             2375000200210 
 1.0209E-01  301.9851                                             2375000200211 
 1.0397E-01  297.8715                                             2375000200212 
 1.0587E-01  296.0830                                             2375000200213 
 1.0782E-01  291.7661                                             2375000200214 
 1.0979E-01  291.1706                                             2375000200215 
 1.1181E-01  287.5054                                             2375000200216 
 1.1386E-01  285.5249                                             2375000200217 
 1.1595E-01  282.2027                                             2375000200218 
 1.1808E-01  280.2016                                             2375000200219 
 1.2024E-01  278.1601                                             2375000200220 
 1.2245E-01  268.7408                                             2375000200221 
 1.2470E-01  266.5192                                             2375000200222 
 1.2698E-01  268.5191                                             2375000200223 
 1.2931E-01  258.6601                                             2375000200224 
 1.3169E-01  256.1404                                             2375000200225 
 1.3410E-01  254.8560                                             2375000200226 
 1.3656E-01  252.0831                                             2375000200227 
 1.3907E-01  249.0535                                             2375000200228 
 1.4162E-01  249.5312                                             2375000200229 
 1.4422E-01  242.4338                                             2375000200230 
 1.4687E-01  241.9200                                             2375000200231 
 1.4956E-01  238.3842                                             2375000200232 
 1.5230E-01  237.5170                                             2375000200233 
 1.5510E-01  229.9820                                             2375000200234 
 1.5795E-01  233.0711                                             2375000200235 
 1.6084E-01  225.3678                                             2375000200236 
 1.6379E-01  222.1773                                             2375000200237 
 1.6680E-01  219.4138                                             2375000200238 
 1.6986E-01  218.7800                                             2375000200239 
 1.7298E-01  215.9376                                             2375000200240 
 1.7615E-01  208.4725                                             2375000200241 
 1.7938E-01  204.8748                                             2375000200242 
 1.8267E-01  209.2100                                             2375000200243 
 1.8603E-01  205.0293                                             2375000200244 
 1.8944E-01  200.5764                                             2375000200245 
 1.9291E-01  192.2359                                             2375000200246 
 1.9645E-01  191.9312                                             2375000200247 
 2.0006E-01  196.3250                                             2375000200248 
 2.0373E-01  188.7773                                             2375000200249 
 2.0747E-01  181.9034                                             2375000200250 
 2.1127E-01  185.5608                                             2375000200251 
 2.1515E-01  187.9360                                             2375000200252 
 2.1910E-01  180.6528                                             2375000200253 
 2.2312E-01  183.2951                                             2375000200254 
 2.2721E-01  176.5590                                             2375000200255 
 2.3138E-01  173.2008                                             2375000200256 
 2.3563E-01  161.6507                                             2375000200257 
 2.3995E-01  176.8176                                             2375000200258 
 2.4435E-01  173.3941                                             2375000200259 
 2.4884E-01  158.6518                                             2375000200260 
 2.5340E-01  159.9299                                             2375000200261 
 2.5805E-01  150.4098                                             2375000200262 
 2.6279E-01  149.5082                                             2375000200263 
 2.6761E-01  153.2187                                             2375000200264 
 2.7252E-01  149.8486                                             2375000200265 
 2.7752E-01  155.4131                                             2375000200266 
 2.8261E-01  152.4298                                             2375000200267 
 2.8780E-01  145.8539                                             2375000200268 
 2.9308E-01  139.0814                                             2375000200269 
 2.9845E-01  142.4966                                             2375000200270 
 3.0393E-01  138.3635                                             2375000200271 
 3.0951E-01  135.4578                                             2375000200272 
 3.1518E-01  133.0055                                             2375000200273 
 3.2097E-01  131.5973                                             2375000200274 
 3.2686E-01  131.4342                                             2375000200275 
 3.3285E-01  139.4219                                             2375000200276 
 3.3896E-01  132.2894                                             2375000200277 
 3.4518E-01  125.7688                                             2375000200278 
 3.5151E-01  120.5924                                             2375000200279 
 3.5796E-01  123.7029                                             2375000200280 
 3.6453E-01  109.6568                                             2375000200281 
 3.7122E-01  120.7486                                             2375000200282 
 3.7803E-01  117.7645                                             2375000200283 
 3.8497E-01  114.1682                                             2375000200284 
 3.9203E-01  108.8736                                             2375000200285 
 3.9922E-01  114.5983                                             2375000200286 
 4.0655E-01  105.4315                                             2375000200287 
 4.1401E-01  107.1864                                             2375000200288 
 4.2160E-01  105.0001                                             2375000200289 
 4.2934E-01   98.5189                                             2375000200290 
 4.3722E-01  104.4409                                             2375000200291 
 4.4524E-01   97.2705                                             2375000200292 
 4.5341E-01  102.8120                                             2375000200293 
 4.6173E-01   96.5241                                             2375000200294 
 4.7020E-01   98.7399                                             2375000200295 
 4.7883E-01   94.2596                                             2375000200296 
 4.8761E-01   91.0392                                             2375000200297 
 4.9656E-01   89.6150                                             2375000200298 
 5.0567E-01   96.4821                                             2375000200299 
 5.1495E-01   89.2314                                             2375000200300 
 5.2440E-01   86.1447                                             2375000200301 
 5.3402E-01   93.2972                                             2375000200302 
 5.4382E-01   87.4988                                             2375000200303 
 5.5379E-01   83.9856                                             2375000200304 
 5.6396E-01   86.9998                                             2375000200305 
 5.7430E-01   79.0992                                             2375000200306 
 5.8484E-01   79.4321                                             2375000200307 
 5.9557E-01   79.1959                                             2375000200308 
 6.0650E-01   72.2947                                             2375000200309 
 6.1763E-01   82.2877                                             2375000200310 
 6.2896E-01   74.2570                                             2375000200311 
 6.4050E-01   78.5380                                             2375000200312 
 6.5225E-01   75.8552                                             2375000200313 
 6.6422E-01   75.7367                                             2375000200314 
 6.7641E-01   71.0239                                             2375000200315 
 6.8882E-01   66.5839                                             2375000200316 
 7.0146E-01   73.9203                                             2375000200317 
 7.1433E-01   65.4207                                             2375000200318 
 7.2743E-01   66.4907                                             2375000200319 
 7.4078E-01   68.3843                                             2375000200320 
 7.5437E-01   65.6630                                             2375000200321 
 7.6821E-01   65.4619                                             2375000200322 
 7.8231E-01   61.7640                                             2375000200323 
 7.9666E-01   58.8242                                             2375000200324 
 8.1128E-01   60.9767                                             2375000200325 
 8.2616E-01   60.0414                                             2375000200326 
 8.4132E-01   60.3137                                             2375000200327 
 8.5676E-01   53.6805                                             2375000200328 
 8.7248E-01   55.1750                                             2375000200329 
 8.8849E-01   63.4361                                             2375000200330 
 9.0479E-01   53.6074                                             2375000200331 
 9.2139E-01   54.6924                                             2375000200332 
 9.3830E-01   53.8021                                             2375000200333 
 9.5551E-01   52.4760                                             2375000200334 
 9.7305E-01   52.0990                                             2375000200335 
 9.9090E-01   50.3117                                             2375000200336 
 1.0091E+00   56.3734                                             2375000200337 
 1.0276E+00   57.3620                                             2375000200338 
 1.0465E+00   53.8017                                             2375000200339 
 1.0657E+00   54.0664                                             2375000200340 
 1.0852E+00   52.1867                                             2375000200341 
 1.1051E+00   55.6891                                             2375000200342 
 1.1254E+00   52.7563                                             2375000200343 
 1.1460E+00   47.1253                                             2375000200344 
 1.1671E+00   52.0874                                             2375000200345 
 1.1885E+00   46.8646                                             2375000200346 
 1.2103E+00   47.3271                                             2375000200347 
 1.2325E+00   48.7776                                             2375000200348 
 1.2551E+00   46.8826                                             2375000200349 
 1.2781E+00   41.3885                                             2375000200350 
 1.3016E+00   48.1282                                             2375000200351 
 1.3255E+00   45.1990                                             2375000200352 
 1.3498E+00   43.9258                                             2375000200353 
 1.3746E+00   44.7193                                             2375000200354 
 1.3998E+00   45.9416                                             2375000200355 
 1.4255E+00   45.0391                                             2375000200356 
 1.4516E+00   41.7011                                             2375000200357 
 1.4783E+00   45.8460                                             2375000200358 
 1.5054E+00   37.1535                                             2375000200359 
 1.5330E+00   47.0425                                             2375000200360 
 1.5611E+00   41.2593                                             2375000200361 
 1.5898E+00   37.9833                                             2375000200362 
 1.6189E+00   33.8868                                             2375000200363 
 1.6486E+00   30.5757                                             2375000200364 
 1.6789E+00   26.8232                                             2375000200365 
 1.7097E+00   48.3451                                             2375000200366 
 1.7411E+00   71.1785                                             2375000200367 
 1.7730E+00   79.3820                                             2375000200368 
 1.8055E+00   59.7176                                             2375000200369 
 1.8387E+00   43.5107                                             2375000200370 
 1.8724E+00   41.1841                                             2375000200371 
 1.9068E+00   41.1191                                             2375000200372 
 1.9417E+00   46.9693                                             2375000200373 
 1.9774E+00   51.7455                                             2375000200374 
 2.0137E+00   49.1464                                             2375000200375 
 2.0506E+00   56.6406                                             2375000200376 
 2.0882E+00   62.6295                                             2375000200377 
 2.1265E+00   66.7207                                             2375000200378 
 2.1656E+00   66.4085                                             2375000200379 
 2.2053E+00   74.6406                                             2375000200380 
 2.2458E+00   82.8357                                             2375000200381 
 2.2870E+00   88.3593                                             2375000200382 
 2.3289E+00  105.8108                                             2375000200383 
 2.3717E+00  121.0627                                             2375000200384 
 2.4152E+00  145.3545                                             2375000200385 
 2.4595E+00  184.9104                                             2375000200386 
 2.5046E+00  256.9171                                             2375000200387 
 2.5506E+00  387.2434                                             2375000200388 
 2.5974E+00  727.3257                                             2375000200389 
 2.6450E+00 1525.2441                                             2375000200390 
 2.6935E+00 2385.8394                                             2375000200391 
 2.7430E+00 2273.4451                                             2375000200392 
 2.7933E+00 1605.0286                                             2375000200393 
 2.8445E+00  913.6893                                             2375000200394 
 2.8967E+00  483.7337                                             2375000200395 
 2.9499E+00  302.0107                                             2375000200396 
 3.0040E+00  212.3445                                             2375000200397 
 3.0591E+00  170.7614                                             2375000200398 
 3.1153E+00  159.0148                                             2375000200399 
 3.1724E+00  152.3378                                             2375000200400 
 3.2306E+00  152.7389                                             2375000200401 
 3.2899E+00  173.0328                                             2375000200402 
 3.3503E+00  210.1596                                             2375000200403 
 3.4117E+00  277.8923                                             2375000200404 
 3.4743E+00  460.9540                                             2375000200405 
 3.5381E+00 1043.0638                                             2375000200406 
 3.6030E+00 2807.0499                                             2375000200407 
 3.6691E+00 3389.5536                                             2375000200408 
 3.7364E+00 2420.2406                                             2375000200409 
 3.8050E+00 1599.1070                                             2375000200410 
 3.8748E+00  881.4792                                             2375000200411 
 3.9459E+00  486.4145                                             2375000200412 
 4.0183E+00  348.3917                                             2375000200413 
 4.0920E+00  336.2215                                             2375000200414 
 4.1671E+00  501.5634                                             2375000200415 
 4.2436E+00 1193.5162                                             2375000200416 
 4.3214E+00 1907.7701                                             2375000200417 
 4.4007E+00 1567.9118                                             2375000200418 
 4.4815E+00  855.1221                                             2375000200419 
 4.5637E+00  378.2347                                             2375000200420 
 4.6474E+00  186.5081                                             2375000200421 
 4.7327E+00  115.0667                                             2375000200422 
 4.8195E+00   73.3985                                             2375000200423 
 4.9080E+00   50.5133                                             2375000200424 
 4.9980E+00   31.5748                                             2375000200425 
 5.0897E+00   15.7531                                             2375000200426 
 5.1831E+00  -13.7477                                             2375000200427 
 5.2782E+00  -91.4596                                             2375000200428 
 5.3750E+00 -256.2941                                             2375000200429 
 5.4737E+00  -62.2969                                             2375000200430 
 5.5741E+00  366.9176                                             2375000200431 
 5.6764E+00  147.8307                                             2375000200432 
 5.7805E+00   50.2143                                             2375000200433 
 5.8866E+00   24.5942                                             2375000200434 
 5.9946E+00   14.4133                                             2375000200435 
 6.1046E+00   16.1886                                             2375000200436 
 6.2166E+00   10.2679                                             2375000200437 
 6.3307E+00   10.9172                                             2375000200438 
 6.4468E+00   13.1727                                             2375000200439 
 6.5651E+00   10.6911                                             2375000200440 
 6.6856E+00   12.3684                                             2375000200441 
 6.8082E+00   11.2253                                             2375000200442 
 6.9331E+00   11.3265                                             2375000200443 
 7.0603E+00   13.4440                                             2375000200444 
 7.1899E+00   15.9789                                             2375000200445 
 7.3218E+00   20.3063                                             2375000200446 
 7.4562E+00   36.0810                                             2375000200447 
 7.5930E+00  114.5609                                             2375000200448 
 7.7323E+00  421.0722                                             2375000200449 
 7.8741E+00  463.1487                                             2375000200450 
 8.0186E+00  115.6854                                             2375000200451 
 8.1657E+00   35.5349                                             2375000200452 
 8.3156E+00   18.9445                                             2375000200453 
 8.4682E+00   12.0264                                             2375000200454 
 8.6235E+00   10.1799                                             2375000200455 
 8.7818E+00   10.5264                                             2375000200456 
 8.9429E+00    8.7735                                             2375000200457 
 9.1070E+00    8.8527                                             2375000200458 
 9.2741E+00    8.9860                                             2375000200459 
 9.4442E+00   10.4675                                             2375000200460 
 9.6175E+00    7.1532                                             2375000200461 
 9.7940E+00   10.2291                                             2375000200462 
 9.9737E+00   12.4544                                             2375000200463 
ENDDATA            446          0                                 2375000200464 
ENDSUBENT          463          0                                 2375000299999 
SUBENT        23750003   20220623                             23122375000300001 
BIB                  3          9                                 2375000300002 
REACTION   (66-DY-161(N,G)66-DY-162,,SIG,,TTA)                    2375000300003 
SAMPLE     Dy metal (enriched to 161Dy at 95.66%, 0.21 mm thick,  2375000300004 
            0.636 at/kb, 1.0 cm diam.)                            2375000300005 
           (66-DY-161,ENR=0.9566)                                 2375000300006 
           (66-DY-160,ENR=0.0035)                                 2375000300007 
           (66-DY-162,ENR=0.0253)                                 2375000300008 
           (66-DY-163,ENR=0.0090)                                 2375000300009 
           (66-DY-164,ENR=0.0056)                                 2375000300010 
STATUS     (SPSDD) Data above 10 eV not recommended               2375000300011 
ENDBIB               9          0                                 2375000300012 
COMMON               1          3                                 2375000300013 
THICKNESS                                                         2375000300014 
ATOMS/B                                                           2375000300015 
  0.636E-03                                                       2375000300016 
ENDCOMMON            3          0                                 2375000300017 
DATA                 2        430                                 2375000300018 
EN         DATA                                                   2375000300019 
EV         B                                                      2375000300020 
 1.0157E+01   43.2082                                             2375000300021 
 1.0343E+01  112.7611                                             2375000300022 
 1.0533E+01   95.2834                                             2375000300023 
 1.0726E+01  108.9329                                             2375000300024 
 1.0923E+01  322.1240                                             2375000300025 
 1.1123E+01  151.2357                                             2375000300026 
 1.1327E+01   25.0802                                             2375000300027 
 1.1535E+01   12.9216                                             2375000300028 
 1.1747E+01   11.0001                                             2375000300029 
 1.1962E+01   10.2156                                             2375000300030 
 1.2182E+01   10.8062                                             2375000300031 
 1.2405E+01   13.3517                                             2375000300032 
 1.2633E+01   31.6892                                             2375000300033 
 1.2865E+01   50.2613                                             2375000300034 
 1.3101E+01   20.9052                                             2375000300035 
 1.3341E+01   24.4758                                             2375000300036 
 1.3586E+01   35.1797                                             2375000300037 
 1.3835E+01   71.7717                                             2375000300038 
 1.4089E+01  425.6053                                             2375000300039 
 1.4348E+01 1084.8124                                             2375000300040 
 1.4611E+01  835.4468                                             2375000300041 
 1.4879E+01  146.5414                                             2375000300042 
 1.5152E+01   53.4180                                             2375000300043 
 1.5430E+01   35.1678                                             2375000300044 
 1.5713E+01   31.1399                                             2375000300045 
 1.6001E+01   35.6191                                             2375000300046 
 1.6295E+01  102.3274                                             2375000300047 
 1.6594E+01  874.5959                                             2375000300048 
 1.6898E+01 1303.1618                                             2375000300049 
 1.7208E+01  286.2623                                             2375000300050 
 1.7524E+01   74.7256                                             2375000300051 
 1.7846E+01   58.2200                                             2375000300052 
 1.8173E+01  227.4725                                             2375000300053 
 1.8507E+01  724.9194                                             2375000300054 
 1.8846E+01  760.5644                                             2375000300055 
 1.9192E+01   91.9235                                             2375000300056 
 1.9544E+01   28.8004                                             2375000300057 
 1.9903E+01   28.3571                                             2375000300058 
 2.0268E+01   34.2976                                             2375000300059 
 2.0640E+01   28.3029                                             2375000300060 
 2.1018E+01    9.9355                                             2375000300061 
 2.1404E+01    5.7885                                             2375000300062 
 2.1797E+01    4.6954                                             2375000300063 
 2.2197E+01    5.1113                                             2375000300064 
 2.2604E+01    4.2319                                             2375000300065 
 2.3019E+01    3.4695                                             2375000300066 
 2.3441E+01    4.9867                                             2375000300067 
 2.3871E+01    5.0550                                             2375000300068 
 2.4309E+01    7.0640                                             2375000300069 
 2.4755E+01    5.6472                                             2375000300070 
 2.5209E+01   87.9422                                             2375000300071 
 2.5672E+01  117.4304                                             2375000300072 
 2.6143E+01    9.4308                                             2375000300073 
 2.6623E+01    3.6399                                             2375000300074 
 2.7111E+01    4.2291                                             2375000300075 
 2.7609E+01    3.9219                                             2375000300076 
 2.8115E+01    6.6523                                             2375000300077 
 2.8631E+01   16.9303                                             2375000300078 
 2.9156E+01  222.3640                                             2375000300079 
 2.9691E+01  126.1695                                             2375000300080 
 3.0236E+01  118.0446                                             2375000300081 
 3.0791E+01   11.2435                                             2375000300082 
 3.1356E+01    3.3967                                             2375000300083 
 3.1931E+01    2.3535                                             2375000300084 
 3.2517E+01    2.7105                                             2375000300085 
 3.3114E+01    3.6605                                             2375000300086 
 3.3721E+01    3.9359                                             2375000300087 
 3.4340E+01    5.9686                                             2375000300088 
 3.4970E+01    9.1973                                             2375000300089 
 3.5612E+01   60.9189                                             2375000300090 
 3.6265E+01  170.5854                                             2375000300091 
 3.6931E+01   48.1910                                             2375000300092 
 3.7608E+01  328.3152                                             2375000300093 
 3.8298E+01  645.3192                                             2375000300094 
 3.9001E+01  743.5541                                             2375000300095 
 3.9716E+01   63.7324                                             2375000300096 
 4.0445E+01   14.2489                                             2375000300097 
 4.1187E+01   11.2483                                             2375000300098 
 4.1943E+01   12.9846                                             2375000300099 
 4.2713E+01   38.3836                                             2375000300100 
 4.3496E+01  506.8040                                             2375000300101 
 4.4294E+01  194.9804                                             2375000300102 
 4.5107E+01  245.1054                                             2375000300103 
 4.5935E+01  372.6524                                             2375000300104 
 4.6778E+01   19.1810                                             2375000300105 
 4.7636E+01    5.1968                                             2375000300106 
 4.8510E+01    5.8869                                             2375000300107 
 4.9400E+01   13.1018                                             2375000300108 
 5.0306E+01   18.4433                                             2375000300109 
 5.1229E+01  218.3253                                             2375000300110 
 5.2169E+01  499.4460                                             2375000300111 
 5.3126E+01   92.6684                                             2375000300112 
 5.4101E+01   14.5794                                             2375000300113 
 5.5094E+01   82.9172                                             2375000300114 
 5.6105E+01  186.3593                                             2375000300115 
 5.7134E+01   10.5998                                             2375000300116 
 5.8182E+01    3.7751                                             2375000300117 
 5.9250E+01   19.0433                                             2375000300118 
 6.0337E+01  145.7135                                             2375000300119 
 6.1444E+01  103.5449                                             2375000300120 
 6.2572E+01  122.5229                                             2375000300121 
 6.3720E+01   78.1061                                             2375000300122 
 6.4889E+01   64.7063                                             2375000300123 
 6.6079E+01    0.4090                                             2375000300124 
 6.7292E+01    3.4384                                             2375000300125 
 6.8527E+01    5.1386                                             2375000300126 
 6.9784E+01   -3.5993                                             2375000300127 
 7.1064E+01    6.8787                                             2375000300128 
 7.2368E+01   -5.5729                                             2375000300129 
 7.3696E+01   87.3969                                             2375000300130 
 7.5048E+01    7.0821                                             2375000300131 
 7.6425E+01   12.6501                                             2375000300132 
 7.7827E+01   74.8772                                             2375000300133 
 7.9255E+01   15.7630                                             2375000300134 
 8.0710E+01    2.3161                                             2375000300135 
 8.2190E+01   18.0857                                             2375000300136 
 8.3698E+01   37.1471                                             2375000300137 
 8.5234E+01   48.7592                                             2375000300138 
 8.6798E+01   47.3112                                             2375000300139 
 8.8391E+01   26.5514                                             2375000300140 
 9.0012E+01  234.9368                                             2375000300141 
 9.1664E+01   17.7802                                             2375000300142 
 9.3346E+01  116.4013                                             2375000300143 
 9.5059E+01  180.3492                                             2375000300144 
 9.6803E+01   34.4247                                             2375000300145 
 9.8579E+01    3.8599                                             2375000300146 
 1.0039E+02   10.3198                                             2375000300147 
 1.0223E+02  115.7380                                             2375000300148 
 1.0411E+02   20.8517                                             2375000300149 
 1.0602E+02   51.4740                                             2375000300150 
 1.0796E+02    3.3776                                             2375000300151 
 1.0994E+02    9.9912                                             2375000300152 
 1.1196E+02   89.7650                                             2375000300153 
 1.1401E+02   90.6902                                             2375000300154 
 1.1610E+02   -1.9285                                             2375000300155 
 1.1824E+02   16.4201                                             2375000300156 
 1.2040E+02   63.5856                                             2375000300157 
 1.2261E+02   32.5685                                             2375000300158 
 1.2486E+02  124.6164                                             2375000300159 
 1.2715E+02  105.0892                                             2375000300160 
 1.2949E+02   16.8109                                             2375000300161 
 1.3186E+02   45.4005                                             2375000300162 
 1.3428E+02    1.2700                                             2375000300163 
 1.3675E+02    0.9329                                             2375000300164 
 1.3926E+02   81.8431                                             2375000300165 
 1.4181E+02    7.4076                                             2375000300166 
 1.4441E+02   43.5380                                             2375000300167 
 1.4706E+02   20.1732                                             2375000300168 
 1.4976E+02   21.3232                                             2375000300169 
 1.5251E+02    5.5328                                             2375000300170 
 1.5531E+02   42.6651                                             2375000300171 
 1.5816E+02   30.7720                                             2375000300172 
 1.6106E+02   11.1742                                             2375000300173 
 1.6401E+02  152.1558                                             2375000300174 
 1.6702E+02  102.5695                                             2375000300175 
 1.7009E+02  212.3029                                             2375000300176 
 1.7321E+02   61.4404                                             2375000300177 
 1.7639E+02   89.3570                                             2375000300178 
 1.7962E+02   92.7498                                             2375000300179 
 1.8292E+02   41.6164                                             2375000300180 
 1.8627E+02   82.8407                                             2375000300181 
 1.8969E+02   47.8394                                             2375000300182 
 1.9317E+02   54.4741                                             2375000300183 
 1.9672E+02   62.9688                                             2375000300184 
 2.0033E+02   46.2478                                             2375000300185 
 2.0400E+02   54.1461                                             2375000300186 
 2.0775E+02   84.8513                                             2375000300187 
 2.1156E+02   76.2639                                             2375000300188 
 2.1544E+02   97.6722                                             2375000300189 
 2.1939E+02    3.5561                                             2375000300190 
 2.2342E+02    5.1995                                             2375000300191 
 2.2752E+02   31.2787                                             2375000300192 
 2.3169E+02   42.2723                                             2375000300193 
 2.3594E+02   30.8559                                             2375000300194 
 2.4027E+02   26.9430                                             2375000300195 
 2.4468E+02   45.8528                                             2375000300196 
 2.4917E+02   39.2595                                             2375000300197 
 2.5374E+02    8.0443                                             2375000300198 
 2.5840E+02   16.9705                                             2375000300199 
 2.6314E+02   70.7373                                             2375000300200 
 2.6797E+02   78.3454                                             2375000300201 
 2.7288E+02   18.1350                                             2375000300202 
 2.7789E+02   67.6154                                             2375000300203 
 2.8299E+02    5.1183                                             2375000300204 
 2.8818E+02   14.4651                                             2375000300205 
 2.9347E+02   18.3169                                             2375000300206 
 2.9885E+02   22.7425                                             2375000300207 
 3.0434E+02   49.9943                                             2375000300208 
 3.0992E+02   61.3957                                             2375000300209 
 3.1561E+02   54.0445                                             2375000300210 
 3.2140E+02   52.9662                                             2375000300211 
 3.2729E+02   10.2771                                             2375000300212 
 3.3330E+02   12.7627                                             2375000300213 
 3.3941E+02   77.1940                                             2375000300214 
 3.4564E+02   48.4231                                             2375000300215 
 3.5198E+02   10.3210                                             2375000300216 
 3.5844E+02    6.2541                                             2375000300217 
 3.6502E+02   60.2863                                             2375000300218 
 3.7172E+02    6.4971                                             2375000300219 
 3.7854E+02    4.3809                                             2375000300220 
 3.8548E+02   39.5645                                             2375000300221 
 3.9255E+02   10.2473                                             2375000300222 
 3.9976E+02   25.7345                                             2375000300223 
 4.0709E+02    6.4306                                             2375000300224 
 4.1456E+02    8.7310                                             2375000300225 
 4.2217E+02   35.5985                                             2375000300226 
 4.2991E+02   48.6465                                             2375000300227 
 4.3780E+02   20.7752                                             2375000300228 
 4.4583E+02   26.8274                                             2375000300229 
 4.5401E+02   28.8465                                             2375000300230 
 4.6235E+02   34.2259                                             2375000300231 
 4.7083E+02   21.7351                                             2375000300232 
 4.7947E+02   70.3589                                             2375000300233 
 4.8826E+02   10.3964                                             2375000300234 
 4.9722E+02    7.4877                                             2375000300235 
 5.0635E+02   26.0678                                             2375000300236 
 5.1564E+02   22.3225                                             2375000300237 
 5.2510E+02   23.2176                                             2375000300238 
 5.3473E+02   18.1926                                             2375000300239 
 5.4454E+02   28.4048                                             2375000300240 
 5.5453E+02   14.0896                                             2375000300241 
 5.6471E+02   19.3975                                             2375000300242 
 5.7507E+02   12.4104                                             2375000300243 
 5.8562E+02   19.3745                                             2375000300244 
 5.9637E+02   11.3786                                             2375000300245 
 6.0731E+02   30.8123                                             2375000300246 
 6.1845E+02   20.8868                                             2375000300247 
 6.2980E+02   25.9518                                             2375000300248 
 6.4136E+02   22.9832                                             2375000300249 
 6.5312E+02   31.6024                                             2375000300250 
 6.6511E+02    4.1957                                             2375000300251 
 6.7731E+02   28.7072                                             2375000300252 
 6.8974E+02   21.9372                                             2375000300253 
 7.0239E+02   19.0349                                             2375000300254 
 7.1528E+02   12.2903                                             2375000300255 
 7.2840E+02   33.6023                                             2375000300256 
 7.4177E+02   30.6550                                             2375000300257 
 7.5538E+02   25.3066                                             2375000300258 
 7.6924E+02   13.7645                                             2375000300259 
 7.8335E+02   39.6845                                             2375000300260 
 7.9773E+02   16.4694                                             2375000300261 
 8.1236E+02   11.5033                                             2375000300262 
 8.2727E+02   15.1079                                             2375000300263 
 8.4245E+02   18.9388                                             2375000300264 
 8.5791E+02   14.6980                                             2375000300265 
 8.7365E+02   26.4180                                             2375000300266 
 8.8968E+02   15.6690                                             2375000300267 
 9.0600E+02   18.9814                                             2375000300268 
 9.2262E+02   33.8920                                             2375000300269 
 9.3955E+02   17.7781                                             2375000300270 
 9.5679E+02   21.0913                                             2375000300271 
 9.7435E+02   18.8351                                             2375000300272 
 9.9222E+02   24.7047                                             2375000300273 
 1.0104E+03   21.4409                                             2375000300274 
 1.0290E+03   15.5144                                             2375000300275 
 1.0478E+03   27.1292                                             2375000300276 
 1.0671E+03   25.5851                                             2375000300277 
 1.0867E+03   10.8021                                             2375000300278 
 1.1066E+03   15.2765                                             2375000300279 
 1.1269E+03   21.9225                                             2375000300280 
 1.1476E+03   25.0462                                             2375000300281 
 1.1686E+03   14.1678                                             2375000300282 
 1.1901E+03   18.8607                                             2375000300283 
 1.2119E+03   18.3087                                             2375000300284 
 1.2341E+03   19.5764                                             2375000300285 
 1.2568E+03   19.6028                                             2375000300286 
 1.2798E+03   12.6699                                             2375000300287 
 1.3033E+03   12.7101                                             2375000300288 
 1.3272E+03   17.6485                                             2375000300289 
 1.3516E+03   21.7592                                             2375000300290 
 1.3764E+03   13.0949                                             2375000300291 
 1.4016E+03   15.8516                                             2375000300292 
 1.4274E+03   23.8661                                             2375000300293 
 1.4536E+03   13.4205                                             2375000300294 
 1.4802E+03   15.6688                                             2375000300295 
 1.5074E+03   14.7030                                             2375000300296 
 1.5350E+03   22.5479                                             2375000300297 
 1.5632E+03   12.8228                                             2375000300298 
 1.5919E+03   10.5709                                             2375000300299 
 1.6211E+03   19.0248                                             2375000300300 
 1.6508E+03   12.7265                                             2375000300301 
 1.6811E+03   18.3058                                             2375000300302 
 1.7120E+03   17.1625                                             2375000300303 
 1.7434E+03   13.6732                                             2375000300304 
 1.7754E+03   12.1024                                             2375000300305 
 1.8079E+03   12.0441                                             2375000300306 
 1.8411E+03    9.6575                                             2375000300307 
 1.8749E+03   13.1118                                             2375000300308 
 1.9093E+03   12.4775                                             2375000300309 
 1.9443E+03   16.8095                                             2375000300310 
 1.9800E+03   12.8482                                             2375000300311 
 2.0163E+03   14.2131                                             2375000300312 
 2.0533E+03   11.8913                                             2375000300313 
 2.0910E+03   16.2555                                             2375000300314 
 2.1294E+03   15.3438                                             2375000300315 
 2.1684E+03   14.8255                                             2375000300316 
 2.2082E+03   17.3833                                             2375000300317 
 2.2488E+03   10.6848                                             2375000300318 
 2.2900E+03   16.1231                                             2375000300319 
 2.3320E+03   13.9401                                             2375000300320 
 2.3748E+03   15.0343                                             2375000300321 
 2.4184E+03   15.1605                                             2375000300322 
 2.4628E+03   11.9800                                             2375000300323 
 2.5079E+03   12.0065                                             2375000300324 
 2.5540E+03    9.8216                                             2375000300325 
 2.6008E+03   14.5636                                             2375000300326 
 2.6485E+03   10.4417                                             2375000300327 
 2.6971E+03   16.2884                                             2375000300328 
 2.7466E+03   10.8243                                             2375000300329 
 2.7970E+03   12.2178                                             2375000300330 
 2.8483E+03   14.0170                                             2375000300331 
 2.9006E+03   11.2385                                             2375000300332 
 2.9538E+03   13.0454                                             2375000300333 
 3.0080E+03   15.5010                                             2375000300334 
 3.0632E+03   10.8702                                             2375000300335 
 3.1194E+03    8.5967                                             2375000300336 
 3.1767E+03   13.6596                                             2375000300337 
 3.2349E+03   13.9780                                             2375000300338 
 3.2943E+03   10.5631                                             2375000300339 
 3.3547E+03   15.1204                                             2375000300340 
 3.4163E+03   13.3816                                             2375000300341 
 3.4790E+03   13.6629                                             2375000300342 
 3.5428E+03   11.5199                                             2375000300343 
 3.6078E+03   12.1407                                             2375000300344 
 3.6740E+03   10.9968                                             2375000300345 
 3.7414E+03    9.9482                                             2375000300346 
 3.8101E+03   12.2213                                             2375000300347 
 3.8800E+03   11.3331                                             2375000300348 
 3.9512E+03    7.7999                                             2375000300349 
 4.0237E+03   13.8105                                             2375000300350 
 4.0975E+03   15.3346                                             2375000300351 
 4.1727E+03    8.4864                                             2375000300352 
 4.2492E+03   10.1034                                             2375000300353 
 4.3272E+03   12.2604                                             2375000300354 
 4.4066E+03    8.1860                                             2375000300355 
 4.4874E+03    6.5227                                             2375000300356 
 4.5698E+03   10.1795                                             2375000300357 
 4.6536E+03    8.6501                                             2375000300358 
 4.7390E+03    7.0372                                             2375000300359 
 4.8260E+03   11.6156                                             2375000300360 
 4.9145E+03   10.4658                                             2375000300361 
 5.0047E+03   11.6197                                             2375000300362 
 5.0965E+03   12.8753                                             2375000300363 
 5.1900E+03    7.6541                                             2375000300364 
 5.3822E+03    6.8888                                             2375000300365 
 5.4810E+03    8.9639                                             2375000300366 
 5.5815E+03   11.1589                                             2375000300367 
 5.6840E+03    9.1726                                             2375000300368 
 5.7882E+03    6.7707                                             2375000300369 
 5.8944E+03    7.3089                                             2375000300370 
 6.0026E+03   11.7760                                             2375000300371 
 6.1127E+03    5.6446                                             2375000300372 
 6.3391E+03    8.0013                                             2375000300373 
 6.4554E+03    7.4155                                             2375000300374 
 6.5739E+03   11.3956                                             2375000300375 
 6.6945E+03    8.3894                                             2375000300376 
 6.8173E+03    6.0414                                             2375000300377 
 7.0698E+03    4.1242                                             2375000300378 
 7.1995E+03    4.7573                                             2375000300379 
 7.3316E+03    9.0482                                             2375000300380 
 7.6031E+03    8.9739                                             2375000300381 
 7.7426E+03   10.1068                                             2375000300382 
 7.8847E+03    9.4912                                             2375000300383 
 8.0293E+03    9.6167                                             2375000300384 
 8.3267E+03    8.5180                                             2375000300385 
 8.4795E+03    9.7146                                             2375000300386 
 8.7935E+03    6.6092                                             2375000300387 
 8.9548E+03    9.6124                                             2375000300388 
 9.1191E+03    5.5846                                             2375000300389 
 9.4568E+03    8.1781                                             2375000300390 
 9.6304E+03    7.9869                                             2375000300391 
 9.9870E+03    7.2394                                             2375000300392 
 1.0170E+04    9.4927                                             2375000300393 
 1.0547E+04    7.6415                                             2375000300394 
 1.0740E+04    5.6304                                             2375000300395 
 1.1138E+04    5.6757                                             2375000300396 
 1.1342E+04    9.4208                                             2375000300397 
 1.1763E+04    8.1846                                             2375000300398 
 1.2198E+04    6.1815                                             2375000300399 
 1.2422E+04    6.7720                                             2375000300400 
 1.2882E+04    8.1364                                             2375000300401 
 1.3359E+04    8.2766                                             2375000300402 
 1.3604E+04    6.0542                                             2375000300403 
 1.4108E+04    7.9991                                             2375000300404 
 1.4630E+04    5.7070                                             2375000300405 
 1.5172E+04    6.5382                                             2375000300406 
 1.5734E+04    7.4440                                             2375000300407 
 1.6317E+04    5.7575                                             2375000300408 
 1.6616E+04    5.1257                                             2375000300409 
 1.7231E+04    4.9361                                             2375000300410 
 1.7870E+04    6.2565                                             2375000300411 
 1.8531E+04    5.1889                                             2375000300412 
 1.9218E+04    5.3369                                             2375000300413 
 2.0295E+04    3.7093                                             2375000300414 
 2.1047E+04    5.7568                                             2375000300415 
 2.1826E+04    5.8940                                             2375000300416 
 2.2634E+04    3.9107                                             2375000300417 
 2.3472E+04    6.3017                                             2375000300418 
 2.4788E+04    5.5926                                             2375000300419 
 2.5706E+04    6.3424                                             2375000300420 
 2.6658E+04    5.5963                                             2375000300421 
 2.8153E+04    5.5978                                             2375000300422 
 2.9195E+04    4.8610                                             2375000300423 
 3.0832E+04    3.6446                                             2375000300424 
 3.2561E+04    7.0159                                             2375000300425 
 3.3766E+04    7.3235                                             2375000300426 
 3.5659E+04    4.9875                                             2375000300427 
 3.7658E+04    3.8334                                             2375000300428 
 3.9770E+04    3.8137                                             2375000300429 
 4.1999E+04    7.3638                                             2375000300430 
 4.4354E+04    2.7150                                             2375000300431 
 4.6840E+04    3.6327                                             2375000300432 
 5.0374E+04    3.3945                                             2375000300433 
 5.3197E+04    5.0258                                             2375000300434 
 5.6180E+04    2.9213                                             2375000300435 
 6.0418E+04    3.6706                                             2375000300436 
 6.4976E+04    3.5241                                             2375000300437 
 6.9877E+04    3.6679                                             2375000300438 
 7.5148E+04    1.8565                                             2375000300439 
 8.0817E+04    2.3397                                             2375000300440 
 8.6914E+04    3.3803                                             2375000300441 
 9.5186E+04    2.0052                                             2375000300442 
 1.0237E+05    2.8219                                             2375000300443 
 1.1211E+05    2.3305                                             2375000300444 
 1.2278E+05    1.8417                                             2375000300445 
 1.3693E+05    2.1312                                             2375000300446 
 1.4996E+05    1.7333                                             2375000300447 
 1.6725E+05    1.1421                                             2375000300448 
 1.8995E+05    1.2842                                             2375000300449 
 2.1184E+05    1.0526                                             2375000300450 
ENDDATA            432          0                                 2375000300451 
ENDSUBENT          450          0                                 2375000399999 
SUBENT        23750004   20220623                             23122375000400001 
BIB                  2          8                                 2375000400002 
REACTION   (66-DY-163(N,G)66-DY-164,,SIG,,TTA)                    2375000400003 
SAMPLE     Dy metal (enriched to 163Dy at 96.86%, 0.21 mm thick,  2375000400004 
            0.651 at/kb, 1.0 cm diam.)                            2375000400005 
           (66-DY-163,ENR=0.9686)                                 2375000400006 
           (66-DY-160,ENR=0.0003)                                 2375000400007 
           (66-DY-161,ENR=0.0036)                                 2375000400008 
           (66-DY-162,ENR=0.0123)                                 2375000400009 
           (66-DY-164,ENR=0.0152)                                 2375000400010 
ENDBIB               8          0                                 2375000400011 
COMMON               1          3                                 2375000400012 
THICKNESS                                                         2375000400013 
ATOMS/B                                                           2375000400014 
  0.651E-03                                                       2375000400015 
ENDCOMMON            3          0                                 2375000400016 
DATA                 2        444                                 2375000400017 
EN         DATA                                                   2375000400018 
EV         B                                                      2375000400019 
 3.1700E-03   428.5136                                            2375000400020 
 3.2300E-03   389.6094                                            2375000400021 
 3.2900E-03   425.4196                                            2375000400022 
 3.3500E-03   470.0559                                            2375000400023 
 3.4100E-03   391.7811                                            2375000400024 
 3.4700E-03   375.2219                                            2375000400025 
 3.5300E-03   396.4588                                            2375000400026 
 3.6000E-03   438.1255                                            2375000400027 
 3.6600E-03   404.1628                                            2375000400028 
 3.7300E-03   444.3940                                            2375000400029 
 3.8000E-03   377.9697                                            2375000400030 
 3.8700E-03   433.4557                                            2375000400031 
 3.9400E-03   413.2595                                            2375000400032 
 4.0100E-03   374.4906                                            2375000400033 
 4.0900E-03   355.0620                                            2375000400034 
 4.1600E-03   381.1683                                            2375000400035 
 4.2400E-03   422.0480                                            2375000400036 
 4.3200E-03   377.4976                                            2375000400037 
 4.3900E-03   372.4478                                            2375000400038 
 4.4800E-03   380.0816                                            2375000400039 
 4.5600E-03   332.0124                                            2375000400040 
 4.6400E-03   392.0455                                            2375000400041 
 4.7300E-03   347.9227                                            2375000400042 
 4.8100E-03   348.7773                                            2375000400043 
 4.9000E-03   383.4936                                            2375000400044 
 4.9900E-03   354.0104                                            2375000400045 
 5.0800E-03   358.8336                                            2375000400046 
 5.1800E-03   329.9606                                            2375000400047 
 5.2700E-03   339.2458                                            2375000400048 
 5.3700E-03   340.5547                                            2375000400049 
 5.4700E-03   331.8458                                            2375000400050 
 5.5700E-03   349.6664                                            2375000400051 
 5.6700E-03   335.6278                                            2375000400052 
 5.7700E-03   341.5100                                            2375000400053 
 5.8800E-03   336.1120                                            2375000400054 
 5.9900E-03   334.7716                                            2375000400055 
 6.1000E-03   331.3199                                            2375000400056 
 6.2100E-03   326.1812                                            2375000400057 
 6.3200E-03   332.4136                                            2375000400058 
 6.4400E-03   323.3292                                            2375000400059 
 6.5600E-03   332.4673                                            2375000400060 
 6.6800E-03   310.3346                                            2375000400061 
 6.8000E-03   305.6293                                            2375000400062 
 6.9200E-03   299.6897                                            2375000400063 
 7.0500E-03   300.9357                                            2375000400064 
 7.1800E-03   303.7351                                            2375000400065 
 7.3100E-03   286.2165                                            2375000400066 
 7.4500E-03   299.0657                                            2375000400067 
 7.5800E-03   295.0463                                            2375000400068 
 7.7200E-03   293.4985                                            2375000400069 
 7.8600E-03   304.0484                                            2375000400070 
 8.0100E-03   286.6324                                            2375000400071 
 8.1500E-03   290.1965                                            2375000400072 
 8.3000E-03   283.8998                                            2375000400073 
 8.4600E-03   275.2334                                            2375000400074 
 8.6100E-03   281.6532                                            2375000400075 
 8.7700E-03   266.4270                                            2375000400076 
 8.9300E-03   270.9828                                            2375000400077 
 9.0900E-03   271.2853                                            2375000400078 
 9.2600E-03   266.8624                                            2375000400079 
 9.4300E-03   257.7024                                            2375000400080 
 9.6000E-03   271.2531                                            2375000400081 
 9.7800E-03   267.8865                                            2375000400082 
 9.9600E-03   249.7047                                            2375000400083 
 1.0140E-02   265.4182                                            2375000400084 
 1.0330E-02   248.1982                                            2375000400085 
 1.0520E-02   253.3300                                            2375000400086 
 1.0710E-02   244.0469                                            2375000400087 
 1.0910E-02   243.8802                                            2375000400088 
 1.1110E-02   248.5370                                            2375000400089 
 1.1310E-02   237.8889                                            2375000400090 
 1.1520E-02   236.3403                                            2375000400091 
 1.1730E-02   237.0806                                            2375000400092 
 1.1950E-02   233.2735                                            2375000400093 
 1.2170E-02   238.6721                                            2375000400094 
 1.2390E-02   234.5920                                            2375000400095 
 1.2620E-02   229.8160                                            2375000400096 
 1.2850E-02   227.8094                                            2375000400097 
 1.3080E-02   222.4315                                            2375000400098 
 1.3320E-02   219.0057                                            2375000400099 
 1.3570E-02   223.4111                                            2375000400100 
 1.3820E-02   222.0270                                            2375000400101 
 1.4070E-02   217.0019                                            2375000400102 
 1.4330E-02   214.8654                                            2375000400103 
 1.4590E-02   214.6431                                            2375000400104 
 1.4860E-02   213.1193                                            2375000400105 
 1.5130E-02   207.4979                                            2375000400106 
 1.5410E-02   208.3001                                            2375000400107 
 1.5690E-02   206.3214                                            2375000400108 
 1.5980E-02   204.3429                                            2375000400109 
 1.6270E-02   204.3972                                            2375000400110 
 1.6570E-02   201.9979                                            2375000400111 
 1.6880E-02   200.6831                                            2375000400112 
 1.7190E-02   197.6608                                            2375000400113 
 1.7500E-02   194.0696                                            2375000400114 
 1.7820E-02   196.4128                                            2375000400115 
 1.8150E-02   197.3361                                            2375000400116 
 1.8480E-02   191.8438                                            2375000400117 
 1.8820E-02   189.6405                                            2375000400118 
 1.9170E-02   190.2474                                            2375000400119 
 1.9520E-02   190.3238                                            2375000400120 
 1.9880E-02   183.3556                                            2375000400121 
 2.0240E-02   182.2982                                            2375000400122 
 2.0610E-02   181.8264                                            2375000400123 
 2.0990E-02   181.8234                                            2375000400124 
 2.1380E-02   176.4268                                            2375000400125 
 2.1770E-02   174.4607                                            2375000400126 
 2.2170E-02   177.3042                                            2375000400127 
 2.2570E-02   175.4727                                            2375000400128 
 2.2990E-02   172.3179                                            2375000400129 
 2.3410E-02   173.1508                                            2375000400130 
 2.3840E-02   169.0789                                            2375000400131 
 2.4280E-02   170.3148                                            2375000400132 
 2.4720E-02   166.3928                                            2375000400133 
 2.5300E-02   162.2976                                            2375000400134 
 2.5640E-02   164.3347                                            2375000400135 
 2.6110E-02   164.9195                                            2375000400136 
 2.6590E-02   159.9319                                            2375000400137 
 2.7080E-02   157.9571                                            2375000400138 
 2.7570E-02   159.6704                                            2375000400139 
 2.8080E-02   158.6375                                            2375000400140 
 2.8590E-02   155.1130                                            2375000400141 
 2.9120E-02   154.7724                                            2375000400142 
 2.9650E-02   154.1944                                            2375000400143 
 3.0200E-02   151.1500                                            2375000400144 
 3.0750E-02   151.6430                                            2375000400145 
 3.1310E-02   152.2034                                            2375000400146 
 3.1890E-02   149.5651                                            2375000400147 
 3.2470E-02   149.4981                                            2375000400148 
 3.3070E-02   144.9563                                            2375000400149 
 3.3680E-02   143.5453                                            2375000400150 
 3.4290E-02   143.5776                                            2375000400151 
 3.4920E-02   142.1579                                            2375000400152 
 3.5560E-02   141.1388                                            2375000400153 
 3.6220E-02   141.2167                                            2375000400154 
 3.6880E-02   139.5786                                            2375000400155 
 3.7560E-02   139.7573                                            2375000400156 
 3.8250E-02   138.1570                                            2375000400157 
 3.8950E-02   136.4272                                            2375000400158 
 3.9660E-02   136.0482                                            2375000400159 
 4.0390E-02   134.5084                                            2375000400160 
 4.1130E-02   131.1323                                            2375000400161 
 4.1890E-02   133.9367                                            2375000400162 
 4.2660E-02   131.8138                                            2375000400163 
 4.3440E-02   130.2255                                            2375000400164 
 4.4240E-02   129.7683                                            2375000400165 
 4.5050E-02   127.1305                                            2375000400166 
 4.5870E-02   126.3884                                            2375000400167 
 4.6720E-02   125.7180                                            2375000400168 
 4.7570E-02   123.6919                                            2375000400169 
 4.8450E-02   125.0097                                            2375000400170 
 4.9330E-02   122.7855                                            2375000400171 
 5.0240E-02   121.8227                                            2375000400172 
 5.1160E-02   122.9139                                            2375000400173 
 5.2100E-02   120.8906                                            2375000400174 
 5.3060E-02   120.5965                                            2375000400175 
 5.4030E-02   117.8349                                            2375000400176 
 5.5020E-02   116.6195                                            2375000400177 
 5.6030E-02   116.4933                                            2375000400178 
 5.7060E-02   115.5379                                            2375000400179 
 5.8100E-02   114.4804                                            2375000400180 
 5.9170E-02   114.9490                                            2375000400181 
 6.0260E-02   112.0700                                            2375000400182 
 6.1360E-02   114.6105                                            2375000400183 
 6.2490E-02   112.2342                                            2375000400184 
 6.3630E-02   111.6449                                            2375000400185 
 6.4800E-02   110.3777                                            2375000400186 
 6.5990E-02   107.8812                                            2375000400187 
 6.7200E-02   107.9841                                            2375000400188 
 6.8440E-02   106.7538                                            2375000400189 
 6.9690E-02   105.5601                                            2375000400190 
 7.0970E-02   106.4629                                            2375000400191 
 7.2270E-02   104.9785                                            2375000400192 
 7.3600E-02   104.0465                                            2375000400193 
 7.4950E-02   101.7844                                            2375000400194 
 7.6320E-02   102.1712                                            2375000400195 
 7.7720E-02   100.6764                                            2375000400196 
 7.9150E-02    99.8196                                            2375000400197 
 8.0600E-02   100.2500                                            2375000400198 
 8.2080E-02    99.6808                                            2375000400199 
 8.3590E-02    98.1116                                            2375000400200 
 8.5120E-02    97.4992                                            2375000400201 
 8.6680E-02    96.2255                                            2375000400202 
 8.8270E-02    96.8809                                            2375000400203 
 8.9890E-02    95.4062                                            2375000400204 
 9.1540E-02    95.8477                                            2375000400205 
 9.3220E-02    92.6897                                            2375000400206 
 9.4930E-02    93.2387                                            2375000400207 
 9.6670E-02    94.3233                                            2375000400208 
 9.8450E-02    95.3910                                            2375000400209 
 1.0025E-01    91.1384                                            2375000400210 
 1.0209E-01    87.9004                                            2375000400211 
 1.0397E-01    89.8952                                            2375000400212 
 1.0587E-01    90.4938                                            2375000400213 
 1.0782E-01    90.9341                                            2375000400214 
 1.0979E-01    87.1292                                            2375000400215 
 1.1181E-01    86.9265                                            2375000400216 
 1.1386E-01    86.5788                                            2375000400217 
 1.1595E-01    86.0377                                            2375000400218 
 1.1808E-01    83.6673                                            2375000400219 
 1.2024E-01    83.7808                                            2375000400220 
 1.2245E-01    84.0274                                            2375000400221 
 1.2470E-01    83.5133                                            2375000400222 
 1.2698E-01    81.7303                                            2375000400223 
 1.2931E-01    80.7004                                            2375000400224 
 1.3169E-01    78.8780                                            2375000400225 
 1.3410E-01    78.9037                                            2375000400226 
 1.3656E-01    81.1667                                            2375000400227 
 1.3907E-01    79.1477                                            2375000400228 
 1.4162E-01    79.8958                                            2375000400229 
 1.4422E-01    74.5051                                            2375000400230 
 1.4687E-01    78.4132                                            2375000400231 
 1.4956E-01    76.8707                                            2375000400232 
 1.5230E-01    76.8392                                            2375000400233 
 1.5510E-01    76.1777                                            2375000400234 
 1.5795E-01    76.0091                                            2375000400235 
 1.6084E-01    74.7140                                            2375000400236 
 1.6379E-01    72.9825                                            2375000400237 
 1.6680E-01    73.7786                                            2375000400238 
 1.6986E-01    74.4165                                            2375000400239 
 1.7298E-01    67.5564                                            2375000400240 
 1.7615E-01    72.0386                                            2375000400241 
 1.7938E-01    68.7833                                            2375000400242 
 1.8267E-01    71.6226                                            2375000400243 
 1.8603E-01    69.7260                                            2375000400244 
 1.8944E-01    73.0438                                            2375000400245 
 1.9291E-01    66.0610                                            2375000400246 
 1.9645E-01    65.1257                                            2375000400247 
 2.0006E-01    69.6228                                            2375000400248 
 2.0373E-01    64.1072                                            2375000400249 
 2.0747E-01    67.3176                                            2375000400250 
 2.1127E-01    65.9617                                            2375000400251 
 2.1515E-01    63.0892                                            2375000400252 
 2.1910E-01    64.0261                                            2375000400253 
 2.2312E-01    68.7702                                            2375000400254 
 2.2721E-01    66.3646                                            2375000400255 
 2.3138E-01    63.9335                                            2375000400256 
 2.3563E-01    61.6912                                            2375000400257 
 2.3995E-01    67.3810                                            2375000400258 
 2.4435E-01    63.7764                                            2375000400259 
 2.4884E-01    57.7570                                            2375000400260 
 2.5340E-01    61.0879                                            2375000400261 
 2.5805E-01    59.5139                                            2375000400262 
 2.6279E-01    59.4496                                            2375000400263 
 2.6761E-01    59.2999                                            2375000400264 
 2.7252E-01    61.0858                                            2375000400265 
 2.7752E-01    60.9679                                            2375000400266 
 2.8261E-01    58.1979                                            2375000400267 
 2.8780E-01    58.9284                                            2375000400268 
 2.9308E-01    58.2462                                            2375000400269 
 2.9845E-01    57.3925                                            2375000400270 
 3.0393E-01    61.2991                                            2375000400271 
 3.0951E-01    56.3285                                            2375000400272 
 3.1518E-01    56.4698                                            2375000400273 
 3.2097E-01    54.1822                                            2375000400274 
 3.2686E-01    57.3818                                            2375000400275 
 3.3285E-01    59.7029                                            2375000400276 
 3.3896E-01    57.4238                                            2375000400277 
 3.4518E-01    54.0411                                            2375000400278 
 3.5151E-01    56.5549                                            2375000400279 
 3.5796E-01    57.2182                                            2375000400280 
 3.6453E-01    57.0800                                            2375000400281 
 3.7122E-01    55.3755                                            2375000400282 
 3.7803E-01    56.0790                                            2375000400283 
 3.8497E-01    57.0345                                            2375000400284 
 3.9203E-01    56.9810                                            2375000400285 
 3.9922E-01    50.9342                                            2375000400286 
 4.0655E-01    55.8183                                            2375000400287 
 4.1401E-01    52.9375                                            2375000400288 
 4.2160E-01    53.3978                                            2375000400289 
 4.2934E-01    54.4741                                            2375000400290 
 4.3722E-01    55.1875                                            2375000400291 
 4.4524E-01    55.0873                                            2375000400292 
 4.5341E-01    56.1702                                            2375000400293 
 4.6173E-01    55.9985                                            2375000400294 
 4.7020E-01    53.2491                                            2375000400295 
 4.7883E-01    55.1641                                            2375000400296 
 4.8761E-01    56.6140                                            2375000400297 
 4.9656E-01    52.7629                                            2375000400298 
 5.0567E-01    60.1016                                            2375000400299 
 5.1495E-01    53.3608                                            2375000400300 
 5.2440E-01    54.4596                                            2375000400301 
 5.3402E-01    55.8465                                            2375000400302 
 5.4382E-01    54.2542                                            2375000400303 
 5.5379E-01    55.9094                                            2375000400304 
 5.6396E-01    54.9113                                            2375000400305 
 5.7430E-01    53.6890                                            2375000400306 
 5.8484E-01    54.3533                                            2375000400307 
 5.9557E-01    54.8058                                            2375000400308 
 6.0650E-01    58.4542                                            2375000400309 
 6.1763E-01    61.1589                                            2375000400310 
 6.2896E-01    57.7587                                            2375000400311 
 6.4050E-01    59.8061                                            2375000400312 
 6.5225E-01    59.1236                                            2375000400313 
 6.6422E-01    59.5312                                            2375000400314 
 6.7641E-01    59.1422                                            2375000400315 
 6.8882E-01    60.6286                                            2375000400316 
 7.0146E-01    61.0277                                            2375000400317 
 7.1433E-01    64.5839                                            2375000400318 
 7.2743E-01    64.3154                                            2375000400319 
 7.4078E-01    61.6157                                            2375000400320 
 7.5437E-01    65.2730                                            2375000400321 
 7.6821E-01    65.5582                                            2375000400322 
 7.8231E-01    70.7343                                            2375000400323 
 7.9666E-01    63.3152                                            2375000400324 
 8.1128E-01    70.2979                                            2375000400325 
 8.2616E-01    69.3749                                            2375000400326 
 8.4132E-01    67.8765                                            2375000400327 
 8.5676E-01    71.6127                                            2375000400328 
 8.7248E-01    73.9635                                            2375000400329 
 8.8849E-01    72.1992                                            2375000400330 
 9.0479E-01    74.7898                                            2375000400331 
 9.2139E-01    80.6286                                            2375000400332 
 9.3830E-01    82.1780                                            2375000400333 
 9.5551E-01    81.7429                                            2375000400334 
 9.7305E-01    83.2581                                            2375000400335 
 9.9090E-01    87.1738                                            2375000400336 
 1.0091E+00    92.5736                                            2375000400337 
 1.0276E+00    92.9024                                            2375000400338 
 1.0465E+00    98.5058                                            2375000400339 
 1.0657E+00   105.6934                                            2375000400340 
 1.0852E+00   107.6897                                            2375000400341 
 1.1051E+00   109.4103                                            2375000400342 
 1.1254E+00   121.5247                                            2375000400343 
 1.1460E+00   126.5547                                            2375000400344 
 1.1671E+00   123.1311                                            2375000400345 
 1.1885E+00   140.4906                                            2375000400346 
 1.2103E+00   149.5481                                            2375000400347 
 1.2325E+00   159.8499                                            2375000400348 
 1.2551E+00   178.2894                                            2375000400349 
 1.2781E+00   189.0719                                            2375000400350 
 1.3016E+00   203.3509                                            2375000400351 
 1.3255E+00   231.8700                                            2375000400352 
 1.3498E+00   249.6247                                            2375000400353 
 1.3746E+00   282.3193                                            2375000400354 
 1.3998E+00   330.2526                                            2375000400355 
 1.4255E+00   364.0203                                            2375000400356 
 1.4516E+00   433.8379                                            2375000400357 
 1.4783E+00   521.0779                                            2375000400358 
 1.5054E+00   662.0885                                            2375000400359 
 1.5330E+00   789.0046                                            2375000400360 
 1.5611E+00  1086.4947                                            2375000400361 
 1.5898E+00  1552.7643                                            2375000400362 
 1.6189E+00  2453.3999                                            2375000400363 
 1.6486E+00  4769.4622                                            2375000400364 
 1.6789E+00  8467.5672                                            2375000400365 
 1.7097E+00 10731.2434                                            2375000400366 
 1.7411E+00  9394.6968                                            2375000400367 
 1.7730E+00  6002.8884                                            2375000400368 
 1.8055E+00  3814.8278                                            2375000400369 
 1.8387E+00  2674.5256                                            2375000400370 
 1.8724E+00  1911.6576                                            2375000400371 
 1.9068E+00  1384.9627                                            2375000400372 
 1.9417E+00   986.6323                                            2375000400373 
 1.9774E+00   728.1455                                            2375000400374 
 2.0137E+00   528.2376                                            2375000400375 
 2.0506E+00   396.5865                                            2375000400376 
 2.0882E+00   319.1077                                            2375000400377 
 2.1265E+00   255.9789                                            2375000400378 
 2.1656E+00   213.1482                                            2375000400379 
 2.2053E+00   164.7121                                            2375000400380 
 2.2458E+00   144.2923                                            2375000400381 
 2.2870E+00   118.5847                                            2375000400382 
 2.3289E+00   104.0613                                            2375000400383 
 2.3717E+00    93.7306                                            2375000400384 
 2.4152E+00    72.4930                                            2375000400385 
 2.4595E+00    67.6379                                            2375000400386 
 2.5046E+00    59.1243                                            2375000400387 
 2.5506E+00    55.7186                                            2375000400388 
 2.5974E+00    47.8786                                            2375000400389 
 2.6450E+00    45.7134                                            2375000400390 
 2.6935E+00    41.6263                                            2375000400391 
 2.7430E+00    42.3366                                            2375000400392 
 2.7933E+00    45.6469                                            2375000400393 
 2.8445E+00    39.2688                                            2375000400394 
 2.8967E+00    31.1290                                            2375000400395 
 2.9499E+00    25.7968                                            2375000400396 
 3.0040E+00    24.2228                                            2375000400397 
 3.0591E+00    22.1484                                            2375000400398 
 3.1153E+00    18.7452                                            2375000400399 
 3.1724E+00    19.7588                                            2375000400400 
 3.2306E+00    17.0876                                            2375000400401 
 3.2899E+00    16.3104                                            2375000400402 
 3.3503E+00    17.2009                                            2375000400403 
 3.4117E+00    16.0097                                            2375000400404 
 3.4743E+00    12.6040                                            2375000400405 
 3.5381E+00    11.9030                                            2375000400406 
 3.6030E+00    14.6654                                            2375000400407 
 3.6691E+00    15.8588                                            2375000400408 
 3.7364E+00    21.9567                                            2375000400409 
 3.8050E+00    29.7330                                            2375000400410 
 3.8748E+00    20.5917                                            2375000400411 
 3.9459E+00    15.3804                                            2375000400412 
 4.0183E+00     8.9554                                            2375000400413 
 4.0920E+00    11.1619                                            2375000400414 
 4.1671E+00    12.4495                                            2375000400415 
 4.2436E+00    12.9760                                            2375000400416 
 4.3214E+00    24.8805                                            2375000400417 
 4.4007E+00    48.3062                                            2375000400418 
 4.4815E+00    31.7714                                            2375000400419 
 4.5637E+00    14.9399                                            2375000400420 
 4.6474E+00    13.0750                                            2375000400421 
 4.7327E+00    14.1063                                            2375000400422 
 4.8195E+00    14.9080                                            2375000400423 
 4.9080E+00    14.4195                                            2375000400424 
 4.9980E+00    17.2714                                            2375000400425 
 5.0897E+00    24.3097                                            2375000400426 
 5.1831E+00    27.6863                                            2375000400427 
 5.2782E+00    45.3179                                            2375000400428 
 5.3750E+00    92.3910                                            2375000400429 
 5.4737E+00   262.9643                                            2375000400430 
 5.5741E+00   603.5766                                            2375000400431 
 5.6764E+00   505.1136                                            2375000400432 
 5.7805E+00   181.3807                                            2375000400433 
 5.8866E+00   117.5491                                            2375000400434 
 5.9946E+00   136.1168                                            2375000400435 
 6.1046E+00    59.3970                                            2375000400436 
 6.2166E+00    23.5018                                            2375000400437 
 6.3307E+00    14.2992                                            2375000400438 
 6.4468E+00     8.9229                                            2375000400439 
 6.5651E+00     8.2767                                            2375000400440 
 6.6856E+00     7.5383                                            2375000400441 
 6.8082E+00     6.7489                                            2375000400442 
 6.9331E+00     4.7761                                            2375000400443 
 7.0603E+00     6.0172                                            2375000400444 
 7.1899E+00     3.5673                                            2375000400445 
 7.3218E+00     4.5919                                            2375000400446 
 7.4562E+00     3.2232                                            2375000400447 
 7.5930E+00     3.1593                                            2375000400448 
 7.7323E+00     2.0307                                            2375000400449 
 7.8741E+00     7.1583                                            2375000400450 
 8.0186E+00     5.1133                                            2375000400451 
 8.1657E+00     4.4873                                            2375000400452 
 8.3156E+00     2.7885                                            2375000400453 
 8.4682E+00     2.8268                                            2375000400454 
 8.6235E+00     2.2501                                            2375000400455 
 8.7818E+00     2.0176                                            2375000400456 
 8.9429E+00     3.4038                                            2375000400457 
 9.1070E+00     3.1609                                            2375000400458 
 9.2741E+00     4.0615                                            2375000400459 
 9.4442E+00     3.4634                                            2375000400460 
 9.6175E+00     5.2352                                            2375000400461 
 9.7940E+00     1.9049                                            2375000400462 
 9.9737E+00     3.9317                                            2375000400463 
ENDDATA            446          0                                 2375000400464 
ENDSUBENT          463          0                                 2375000499999 
SUBENT        23750005   20220623                             23122375000500001 
BIB                  3          9                                 2375000500002 
REACTION   (66-DY-163(N,G)66-DY-164,,SIG,,TTA)                    2375000500003 
SAMPLE     Dy metal (enriched to 163Dy at 96.86%, 0.21 mm thick,  2375000500004 
            0.651 at/kb, 1.0 cm diam.)                            2375000500005 
           (66-DY-163,ENR=0.9686)                                 2375000500006 
           (66-DY-160,ENR=0.0003)                                 2375000500007 
           (66-DY-161,ENR=0.0036)                                 2375000500008 
           (66-DY-162,ENR=0.0123)                                 2375000500009 
           (66-DY-164,ENR=0.0152)                                 2375000500010 
STATUS     (SPSDD) Data above 10 eV not recommended               2375000500011 
ENDBIB               9          0                                 2375000500012 
COMMON               1          3                                 2375000500013 
THICKNESS                                                         2375000500014 
ATOMS/B                                                           2375000500015 
  0.651E-03                                                       2375000500016 
ENDCOMMON            3          0                                 2375000500017 
DATA                 2        430                                 2375000500018 
EN         DATA                                                   2375000500019 
EV         B                                                      2375000500020 
 1.0157E+01     3.2541                                            2375000500021 
 1.0343E+01     4.4651                                            2375000500022 
 1.0533E+01     9.7237                                            2375000500023 
 1.0726E+01    13.0984                                            2375000500024 
 1.0923E+01     5.5569                                            2375000500025 
 1.1123E+01     6.1301                                            2375000500026 
 1.1327E+01     3.4926                                            2375000500027 
 1.1535E+01     3.2593                                            2375000500028 
 1.1747E+01     5.3588                                            2375000500029 
 1.1962E+01     4.1618                                            2375000500030 
 1.2182E+01     4.5644                                            2375000500031 
 1.2405E+01     4.4418                                            2375000500032 
 1.2633E+01     5.4106                                            2375000500033 
 1.2865E+01     5.3379                                            2375000500034 
 1.3101E+01     6.0152                                            2375000500035 
 1.3341E+01     5.4369                                            2375000500036 
 1.3586E+01     7.9620                                            2375000500037 
 1.3835E+01     7.3329                                            2375000500038 
 1.4089E+01     9.6823                                            2375000500039 
 1.4348E+01    20.9005                                            2375000500040 
 1.4611E+01    26.7170                                            2375000500041 
 1.4879E+01    23.7001                                            2375000500042 
 1.5152E+01    24.0985                                            2375000500043 
 1.5430E+01    32.2970                                            2375000500044 
 1.5713E+01    57.7643                                            2375000500045 
 1.6001E+01   158.5997                                            2375000500046 
 1.6295E+01  1457.6036                                            2375000500047 
 1.6594E+01  1316.7605                                            2375000500048 
 1.6898E+01  1115.8394                                            2375000500049 
 1.7208E+01   281.7818                                            2375000500050 
 1.7524E+01    86.2077                                            2375000500051 
 1.7846E+01    43.0012                                            2375000500052 
 1.8173E+01    26.3164                                            2375000500053 
 1.8507E+01    17.5765                                            2375000500054 
 1.8846E+01    15.2173                                            2375000500055 
 1.9192E+01    16.6724                                            2375000500056 
 1.9544E+01    12.5446                                            2375000500057 
 1.9903E+01    40.6205                                            2375000500058 
 2.0268E+01   194.6773                                            2375000500059 
 2.0640E+01    29.4611                                            2375000500060 
 2.1018E+01    12.1986                                            2375000500061 
 2.1404E+01     4.5294                                            2375000500062 
 2.1797E+01     3.8701                                            2375000500063 
 2.2197E+01     2.7639                                            2375000500064 
 2.2604E+01     2.9657                                            2375000500065 
 2.3019E+01     2.4821                                            2375000500066 
 2.3441E+01     1.6538                                            2375000500067 
 2.3871E+01     2.7306                                            2375000500068 
 2.4309E+01     3.2529                                            2375000500069 
 2.4755E+01     3.7388                                            2375000500070 
 2.5209E+01     2.2455                                            2375000500071 
 2.5672E+01     2.9987                                            2375000500072 
 2.6143E+01     1.6724                                            2375000500073 
 2.6623E+01     2.5792                                            2375000500074 
 2.7111E+01     2.0424                                            2375000500075 
 2.7609E+01     2.7250                                            2375000500076 
 2.8115E+01     2.2672                                            2375000500077 
 2.8631E+01     0.7804                                            2375000500078 
 2.9156E+01     1.1923                                            2375000500079 
 2.9691E+01     3.1829                                            2375000500080 
 3.0236E+01     1.8404                                            2375000500081 
 3.0791E+01     2.2214                                            2375000500082 
 3.1356E+01     0.9254                                            2375000500083 
 3.1931E+01     1.5348                                            2375000500084 
 3.2517E+01     1.0855                                            2375000500085 
 3.3114E+01     2.6808                                            2375000500086 
 3.3721E+01     2.3256                                            2375000500087 
 3.4340E+01     2.6057                                            2375000500088 
 3.4970E+01     5.3398                                            2375000500089 
 3.5612E+01    11.1151                                            2375000500090 
 3.6265E+01    96.2633                                            2375000500091 
 3.6931E+01   425.0548                                            2375000500092 
 3.7608E+01    28.2357                                            2375000500093 
 3.8298E+01     7.3354                                            2375000500094 
 3.9001E+01     6.7284                                            2375000500095 
 3.9716E+01     8.1676                                            2375000500096 
 4.0445E+01     7.7497                                            2375000500097 
 4.1187E+01     1.6046                                            2375000500098 
 4.1943E+01     2.4779                                            2375000500099 
 4.2713E+01     1.5188                                            2375000500100 
 4.3496E+01     2.1276                                            2375000500101 
 4.4294E+01     5.0379                                            2375000500102 
 4.5107E+01     2.7580                                            2375000500103 
 4.5935E+01     3.3354                                            2375000500104 
 4.6778E+01     4.3551                                            2375000500105 
 4.7636E+01     2.2523                                            2375000500106 
 4.8510E+01     1.7786                                            2375000500107 
 4.9400E+01     2.6488                                            2375000500108 
 5.0306E+01     4.6024                                            2375000500109 
 5.1229E+01    54.5161                                            2375000500110 
 5.2169E+01    90.5174                                            2375000500111 
 5.3126E+01     6.1508                                            2375000500112 
 5.4101E+01     3.1329                                            2375000500113 
 5.5094E+01     6.6005                                            2375000500114 
 5.6105E+01    26.8395                                            2375000500115 
 5.7134E+01   356.8140                                            2375000500116 
 5.8182E+01   233.5340                                            2375000500117 
 5.9250E+01    61.5107                                            2375000500118 
 6.0337E+01   366.0356                                            2375000500119 
 6.1444E+01   279.5903                                            2375000500120 
 6.2572E+01    26.2239                                            2375000500121 
 6.3720E+01     8.1728                                            2375000500122 
 6.4889E+01     5.5825                                            2375000500123 
 6.6079E+01     6.7345                                            2375000500124 
 6.7292E+01    57.7026                                            2375000500125 
 6.8527E+01   159.3180                                            2375000500126 
 6.9784E+01     4.7790                                            2375000500127 
 7.1064E+01     4.2629                                            2375000500128 
 7.2368E+01    13.4498                                            2375000500129 
 7.3696E+01    63.7878                                            2375000500130 
 7.5048E+01    14.2519                                            2375000500131 
 7.6425E+01     8.8869                                            2375000500132 
 7.7827E+01    43.3580                                            2375000500133 
 7.9255E+01     7.5436                                            2375000500134 
 8.0710E+01   124.9974                                            2375000500135 
 8.2190E+01    75.2613                                            2375000500136 
 8.3698E+01     3.7730                                            2375000500137 
 8.5234E+01     2.7255                                            2375000500138 
 8.6798E+01     2.8412                                            2375000500139 
 8.8391E+01    18.9989                                            2375000500140 
 9.0012E+01     5.2927                                            2375000500141 
 9.1664E+01     4.2227                                            2375000500142 
 9.3346E+01     2.1167                                            2375000500143 
 9.5059E+01    15.1232                                            2375000500144 
 9.6803E+01   180.2597                                            2375000500145 
 9.8579E+01     7.4092                                            2375000500146 
 1.0039E+02     4.0732                                            2375000500147 
 1.0223E+02     3.3921                                            2375000500148 
 1.0411E+02     3.1502                                            2375000500149 
 1.0602E+02    -5.2771                                            2375000500150 
 1.0796E+02   211.0875                                            2375000500151 
 1.0994E+02   300.9498                                            2375000500152 
 1.1196E+02    22.3030                                            2375000500153 
 1.1401E+02     4.9756                                            2375000500154 
 1.1610E+02     5.6231                                            2375000500155 
 1.1824E+02     2.2925                                            2375000500156 
 1.2040E+02     3.4450                                            2375000500157 
 1.2261E+02    11.7320                                            2375000500158 
 1.2486E+02    25.8951                                            2375000500159 
 1.2715E+02     4.2709                                            2375000500160 
 1.2949E+02    94.1519                                            2375000500161 
 1.3186E+02    90.3606                                            2375000500162 
 1.3428E+02     3.5418                                            2375000500163 
 1.3675E+02     3.6865                                            2375000500164 
 1.3926E+02    30.2435                                            2375000500165 
 1.4181E+02     4.7478                                            2375000500166 
 1.4441E+02     4.9179                                            2375000500167 
 1.4706E+02    66.3578                                            2375000500168 
 1.4976E+02   129.3955                                            2375000500169 
 1.5251E+02    15.5595                                            2375000500170 
 1.5531E+02   -24.7109                                            2375000500171 
 1.5816E+02    57.3622                                            2375000500172 
 1.6106E+02    87.5321                                            2375000500173 
 1.6401E+02     2.6530                                            2375000500174 
 1.6702E+02    18.1815                                            2375000500175 
 1.7009E+02    26.3471                                            2375000500176 
 1.7321E+02     4.1348                                            2375000500177 
 1.7639E+02     1.5592                                            2375000500178 
 1.7962E+02     3.2088                                            2375000500179 
 1.8292E+02    15.5600                                            2375000500180 
 1.8627E+02     1.5891                                            2375000500181 
 1.8969E+02    16.1768                                            2375000500182 
 1.9317E+02    11.9987                                            2375000500183 
 1.9672E+02     5.9268                                            2375000500184 
 2.0033E+02     2.2769                                            2375000500185 
 2.0400E+02     3.8340                                            2375000500186 
 2.0775E+02    39.7424                                            2375000500187 
 2.1156E+02   106.7225                                            2375000500188 
 2.1544E+02     6.5334                                            2375000500189 
 2.1939E+02    17.3248                                            2375000500190 
 2.2342E+02    -1.4224                                            2375000500191 
 2.2752E+02    39.5342                                            2375000500192 
 2.3169E+02   116.0567                                            2375000500193 
 2.3594E+02     5.3603                                            2375000500194 
 2.4027E+02    11.0620                                            2375000500195 
 2.4468E+02     2.1004                                            2375000500196 
 2.4917E+02     1.5360                                            2375000500197 
 2.5374E+02     4.9365                                            2375000500198 
 2.5840E+02    24.7856                                            2375000500199 
 2.6314E+02     7.6985                                            2375000500200 
 2.6797E+02    66.2877                                            2375000500201 
 2.7288E+02    33.7475                                            2375000500202 
 2.7789E+02    60.5585                                            2375000500203 
 2.8299E+02    29.7671                                            2375000500204 
 2.8818E+02    31.0196                                            2375000500205 
 2.9347E+02    19.4664                                            2375000500206 
 2.9885E+02    42.2687                                            2375000500207 
 3.0434E+02    39.4206                                            2375000500208 
 3.0992E+02    26.0336                                            2375000500209 
 3.1561E+02     3.2825                                            2375000500210 
 3.2140E+02     4.4166                                            2375000500211 
 3.2729E+02    18.5596                                            2375000500212 
 3.3330E+02   148.8998                                            2375000500213 
 3.3941E+02    35.7296                                            2375000500214 
 3.4564E+02     2.2518                                            2375000500215 
 3.5198E+02    22.6345                                            2375000500216 
 3.5844E+02    42.7756                                            2375000500217 
 3.6502E+02     4.7754                                            2375000500218 
 3.7172E+02     3.8822                                            2375000500219 
 3.7854E+02    51.5443                                            2375000500220 
 3.8548E+02     7.2156                                            2375000500221 
 3.9255E+02     5.8106                                            2375000500222 
 3.9976E+02    43.3300                                            2375000500223 
 4.0709E+02     9.2380                                            2375000500224 
 4.1456E+02    20.3554                                            2375000500225 
 4.2217E+02    75.6479                                            2375000500226 
 4.2991E+02     7.5275                                            2375000500227 
 4.3780E+02     6.2942                                            2375000500228 
 4.4583E+02    11.6044                                            2375000500229 
 4.5401E+02     1.0380                                            2375000500230 
 4.6235E+02     8.0912                                            2375000500231 
 4.7083E+02    31.9523                                            2375000500232 
 4.7947E+02     7.9747                                            2375000500233 
 4.8826E+02     7.5156                                            2375000500234 
 4.9722E+02    34.8991                                            2375000500235 
 5.0635E+02    -1.5246                                            2375000500236 
 5.1564E+02    12.5169                                            2375000500237 
 5.2510E+02     7.4164                                            2375000500238 
 5.3473E+02    14.5248                                            2375000500239 
 5.4454E+02    21.9276                                            2375000500240 
 5.5453E+02    27.5973                                            2375000500241 
 5.6471E+02     0.7115                                            2375000500242 
 5.7507E+02     2.9148                                            2375000500243 
 5.8562E+02    30.7402                                            2375000500244 
 5.9637E+02    16.6160                                            2375000500245 
 6.0731E+02     9.7303                                            2375000500246 
 6.1845E+02    30.8720                                            2375000500247 
 6.2980E+02    11.3460                                            2375000500248 
 6.4136E+02    21.8724                                            2375000500249 
 6.5312E+02    32.9178                                            2375000500250 
 6.6511E+02    27.7196                                            2375000500251 
 6.7731E+02     2.5672                                            2375000500252 
 6.8974E+02     4.8718                                            2375000500253 
 7.0239E+02     4.5899                                            2375000500254 
 7.1528E+02    13.4195                                            2375000500255 
 7.2840E+02     9.3067                                            2375000500256 
 7.4177E+02    13.8071                                            2375000500257 
 7.5538E+02    11.0136                                            2375000500258 
 7.6924E+02     8.6622                                            2375000500259 
 7.8335E+02     9.3387                                            2375000500260 
 7.9773E+02     7.3953                                            2375000500261 
 8.1236E+02     5.4625                                            2375000500262 
 8.2727E+02    10.3136                                            2375000500263 
 8.4245E+02    19.5658                                            2375000500264 
 8.5791E+02     9.7413                                            2375000500265 
 8.7365E+02    12.7063                                            2375000500266 
 8.8968E+02    13.4602                                            2375000500267 
 9.0600E+02     7.2810                                            2375000500268 
 9.2262E+02     6.1605                                            2375000500269 
 9.3955E+02     9.9299                                            2375000500270 
 9.5679E+02    15.3773                                            2375000500271 
 9.7435E+02    13.7391                                            2375000500272 
 9.9222E+02     9.5528                                            2375000500273 
 1.0104E+03     9.5545                                            2375000500274 
 1.0290E+03     5.3646                                            2375000500275 
 1.0478E+03    11.1857                                            2375000500276 
 1.0671E+03    13.0086                                            2375000500277 
 1.0867E+03    17.4664                                            2375000500278 
 1.1066E+03     6.5395                                            2375000500279 
 1.1269E+03     7.4119                                            2375000500280 
 1.1476E+03     5.4610                                            2375000500281 
 1.1686E+03     8.4564                                            2375000500282 
 1.1901E+03    11.6029                                            2375000500283 
 1.2119E+03    10.7382                                            2375000500284 
 1.2341E+03     3.0197                                            2375000500285 
 1.2568E+03    12.1774                                            2375000500286 
 1.2798E+03     4.9654                                            2375000500287 
 1.3033E+03     5.6951                                            2375000500288 
 1.3272E+03     8.8912                                            2375000500289 
 1.3516E+03     8.8257                                            2375000500290 
 1.3764E+03    11.8187                                            2375000500291 
 1.4016E+03     7.9727                                            2375000500292 
 1.4274E+03     5.4023                                            2375000500293 
 1.4536E+03     6.8695                                            2375000500294 
 1.4802E+03     6.4504                                            2375000500295 
 1.5074E+03    10.9925                                            2375000500296 
 1.5350E+03    10.9416                                            2375000500297 
 1.5632E+03     6.5087                                            2375000500298 
 1.5919E+03     2.8810                                            2375000500299 
 1.6211E+03     8.3990                                            2375000500300 
 1.6508E+03     3.3976                                            2375000500301 
 1.6811E+03     4.3085                                            2375000500302 
 1.7120E+03     6.5660                                            2375000500303 
 1.7434E+03     6.4588                                            2375000500304 
 1.7754E+03     6.6588                                            2375000500305 
 1.8079E+03     8.4125                                            2375000500306 
 1.8411E+03     9.8296                                            2375000500307 
 1.8749E+03     6.6185                                            2375000500308 
 1.9093E+03     6.5975                                            2375000500309 
 1.9443E+03     3.7644                                            2375000500310 
 1.9800E+03     3.5116                                            2375000500311 
 2.0163E+03     8.4021                                            2375000500312 
 2.0533E+03    11.3999                                            2375000500313 
 2.0910E+03     4.3850                                            2375000500314 
 2.1294E+03     7.0684                                            2375000500315 
 2.1684E+03     4.0499                                            2375000500316 
 2.2082E+03     5.6049                                            2375000500317 
 2.2488E+03     6.7931                                            2375000500318 
 2.2900E+03     6.0820                                            2375000500319 
 2.3320E+03     6.8033                                            2375000500320 
 2.3748E+03     8.5367                                            2375000500321 
 2.4184E+03     8.2797                                            2375000500322 
 2.4628E+03     8.6906                                            2375000500323 
 2.5079E+03     2.4605                                            2375000500324 
 2.5540E+03     5.7643                                            2375000500325 
 2.6008E+03     6.3492                                            2375000500326 
 2.6485E+03     5.8286                                            2375000500327 
 2.6971E+03     5.4590                                            2375000500328 
 2.7466E+03     7.9156                                            2375000500329 
 2.7970E+03     6.6594                                            2375000500330 
 2.8483E+03    10.3648                                            2375000500331 
 2.9006E+03     8.0660                                            2375000500332 
 2.9538E+03     5.8542                                            2375000500333 
 3.0080E+03     7.1297                                            2375000500334 
 3.0632E+03     3.5063                                            2375000500335 
 3.1194E+03     5.3563                                            2375000500336 
 3.1767E+03     7.9807                                            2375000500337 
 3.2349E+03     6.0508                                            2375000500338 
 3.2943E+03     4.4617                                            2375000500339 
 3.3547E+03     7.8563                                            2375000500340 
 3.4163E+03     3.7121                                            2375000500341 
 3.4790E+03     5.8132                                            2375000500342 
 3.5428E+03     5.9091                                            2375000500343 
 3.6078E+03     6.4626                                            2375000500344 
 3.6740E+03     4.8608                                            2375000500345 
 3.7414E+03     0.3256                                            2375000500346 
 3.8101E+03     4.5386                                            2375000500347 
 3.8800E+03     4.6344                                            2375000500348 
 3.9512E+03     3.8120                                            2375000500349 
 4.0237E+03     4.8486                                            2375000500350 
 4.0975E+03     6.6195                                            2375000500351 
 4.1727E+03     3.4378                                            2375000500352 
 4.2492E+03     0.7163                                            2375000500353 
 4.3272E+03     5.7874                                            2375000500354 
 4.4066E+03     5.5188                                            2375000500355 
 4.4874E+03     3.5369                                            2375000500356 
 4.5698E+03     6.7800                                            2375000500357 
 4.6536E+03     5.1180                                            2375000500358 
 4.7390E+03     3.6719                                            2375000500359 
 4.8260E+03     6.0935                                            2375000500360 
 4.9145E+03     4.8458                                            2375000500361 
 5.0047E+03     6.2260                                            2375000500362 
 5.0965E+03     4.3812                                            2375000500363 
 5.1900E+03     5.4679                                            2375000500364 
 5.3822E+03     6.8107                                            2375000500365 
 5.4810E+03     4.5421                                            2375000500366 
 5.5815E+03     6.2069                                            2375000500367 
 5.6840E+03     5.3538                                            2375000500368 
 5.7882E+03     4.8277                                            2375000500369 
 5.8944E+03     2.4803                                            2375000500370 
 6.0026E+03     7.3791                                            2375000500371 
 6.1127E+03     4.5499                                            2375000500372 
 6.3391E+03     8.3935                                            2375000500373 
 6.4554E+03     6.1792                                            2375000500374 
 6.5739E+03     8.3068                                            2375000500375 
 6.6945E+03     5.0525                                            2375000500376 
 6.8173E+03     2.8949                                            2375000500377 
 7.0698E+03     3.5772                                            2375000500378 
 7.1995E+03     3.8587                                            2375000500379 
 7.3316E+03     8.3266                                            2375000500380 
 7.6031E+03     4.5762                                            2375000500381 
 7.7426E+03     5.2113                                            2375000500382 
 7.8847E+03     3.2685                                            2375000500383 
 8.0293E+03     4.0605                                            2375000500384 
 8.3267E+03     3.4323                                            2375000500385 
 8.4795E+03     5.6944                                            2375000500386 
 8.7935E+03     2.3628                                            2375000500387 
 8.9548E+03     3.5769                                            2375000500388 
 9.1191E+03     2.8653                                            2375000500389 
 9.4568E+03     5.8980                                            2375000500390 
 9.6304E+03     4.5691                                            2375000500391 
 9.9870E+03     4.1176                                            2375000500392 
 1.0170E+04     4.2673                                            2375000500393 
 1.0547E+04     2.5803                                            2375000500394 
 1.0740E+04     3.6359                                            2375000500395 
 1.1138E+04     1.4442                                            2375000500396 
 1.1342E+04     3.9906                                            2375000500397 
 1.1763E+04     3.8863                                            2375000500398 
 1.2198E+04     4.2862                                            2375000500399 
 1.2422E+04     3.3155                                            2375000500400 
 1.2882E+04     3.5071                                            2375000500401 
 1.3359E+04     4.5620                                            2375000500402 
 1.3604E+04     3.3582                                            2375000500403 
 1.4108E+04     3.0032                                            2375000500404 
 1.4630E+04     3.2297                                            2375000500405 
 1.5172E+04     3.5269                                            2375000500406 
 1.5734E+04     4.4708                                            2375000500407 
 1.6317E+04     2.9296                                            2375000500408 
 1.6616E+04     3.9502                                            2375000500409 
 1.7231E+04     1.9931                                            2375000500410 
 1.7870E+04     4.0836                                            2375000500411 
 1.8531E+04     1.9268                                            2375000500412 
 1.9218E+04     3.7468                                            2375000500413 
 2.0295E+04     1.8846                                            2375000500414 
 2.1047E+04     4.2260                                            2375000500415 
 2.1826E+04     3.0694                                            2375000500416 
 2.2634E+04     2.0602                                            2375000500417 
 2.3472E+04     5.0175                                            2375000500418 
 2.4788E+04     3.3065                                            2375000500419 
 2.5706E+04     3.9593                                            2375000500420 
 2.6658E+04     2.8839                                            2375000500421 
 2.8153E+04     2.4508                                            2375000500422 
 2.9195E+04     4.0399                                            2375000500423 
 3.0832E+04     1.9703                                            2375000500424 
 3.2561E+04     4.1243                                            2375000500425 
 3.3766E+04     3.2710                                            2375000500426 
 3.5659E+04     2.0312                                            2375000500427 
 3.7658E+04     1.6695                                            2375000500428 
 3.9770E+04     2.1847                                            2375000500429 
 4.1999E+04     2.2089                                            2375000500430 
 4.4354E+04     2.9010                                            2375000500431 
 4.6840E+04     2.8663                                            2375000500432 
 5.0374E+04     2.7076                                            2375000500433 
 5.3197E+04     1.8517                                            2375000500434 
 5.6180E+04     2.3867                                            2375000500435 
 6.0418E+04     2.1383                                            2375000500436 
 6.4976E+04     1.3309                                            2375000500437 
 6.9877E+04     2.8591                                            2375000500438 
 7.5148E+04     1.1544                                            2375000500439 
 8.0817E+04     1.7062                                            2375000500440 
 8.6914E+04     2.0043                                            2375000500441 
 9.5186E+04     1.0044                                            2375000500442 
 1.0237E+05     1.8224                                            2375000500443 
 1.1211E+05     1.6190                                            2375000500444 
 1.2278E+05     1.2904                                            2375000500445 
 1.3693E+05     1.2256                                            2375000500446 
 1.4996E+05     1.2611                                            2375000500447 
 1.6725E+05     0.5880                                            2375000500448 
 1.8995E+05     1.0537                                            2375000500449 
 2.1184E+05     0.8507                                            2375000500450 
ENDDATA            432          0                                 2375000500451 
ENDSUBENT          450          0                                 2375000599999 
ENDENTRY             5          0                                 2375099999999 
